status,temperature,acceleration_y,acceleration_x,humidity,pressure,v_pd,v_cc,id,acceleration_z,timestamp
0,27.26,140,-89,36.9,1007.24,999,3.466,1,1344,2015-10-27T15:37:44.281Z
0,27.2,143,-89,36.9,1007.28,999,3.466,1,1343,2015-10-27T15:36:42.198Z
0,27.24,147,-90,36.9,1007.38,999,3.461,1,1343,2015-10-27T15:35:36.383Z
0,27.24,143,-95,36.77,1007.28,999,3.461,1,1339,2015-10-27T15:34:45.715Z
0,27.24,134,-80,36.61,1007.2,999,3.461,1,1343,2015-10-27T15:33:57.702Z
0,27.3,144,-93,36.52,1007.24,999,3.461,1,1342,2015-10-27T15:32:44.856Z
0,27.29,143,-89,36.86,1007.2,999,3.461,1,1344,2015-10-27T15:30:52.364Z
0,27.23,139,-90,37.41,1007.28,999,3.466,1,1340,2015-10-27T15:29:53.427Z
0,27.17,140,-90,37.81,1007.31,999,3.461,1,1347,2015-10-27T15:29:01.042Z
0,27.21,137,-82,37.81,1007.25,999,3.461,1,1344,2015-10-27T15:27:57.986Z
0,27.19,143,-93,37.74,1007.27,999,3.461,1,1344,2015-10-27T15:27:01.124Z
0,27.34,142,-93,36.69,1007.23,999,3.466,1,1342,2015-10-27T15:26:04.911Z
0,27.36,142,-95,36.42,1007.19,999,3.466,1,1335,2015-10-27T15:25:10.350Z
0,27.33,135,-89,36.45,1007.15,999,3.466,1,1342,2015-10-27T15:24:11.955Z
0,27.38,135,-88,36.35,1007.2,999,3.461,1,1344,2015-10-27T15:23:15.696Z
0,27.47,140,-87,36.31,1007.23,999,3.461,1,1343,2015-10-27T15:22:16.315Z
0,27.49,143,-89,36.27,1007.22,999,3.461,1,1340,2015-10-27T15:21:31.234Z
0,27.45,136,-89,36.51,1007.23,999,3.466,1,1343,2015-10-27T15:20:27.949Z
0,27.45,140,-95,36.24,1007.22,999,3.461,1,1342,2015-10-27T15:19:26.646Z
0,27.43,140,-88,37.14,1007.23,999,3.461,1,1347,2015-10-27T15:18:30.776Z
0,27.5,142,-95,36.27,1007.24,999,3.466,1,1344,2015-10-27T15:17:30.474Z
0,27.43,143,-93,36.57,1007.3,999,3.466,1,1339,2015-10-27T15:16:46.726Z
0,27.48,140,-89,36.31,1007.24,999,3.466,1,1347,2015-10-27T15:15:37.008Z
0,27.45,135,-80,36.41,1007.24,999,3.466,1,1340,2015-10-27T15:14:51.653Z
0,27.47,139,-89,36.37,1007.27,999,3.466,1,1342,2015-10-27T15:13:50.965Z
0,27.46,139,-93,36.34,1007.25,999,3.466,1,1340,2015-10-27T15:12:51.522Z
0,27.41,140,-84,36.49,1007.29,999,3.466,1,1336,2015-10-27T15:12:01.932Z
0,27.43,140,-90,36.47,1007.34,999,3.461,1,1345,2015-10-27T15:11:11.733Z
0,27.45,142,-89,36.37,1007.35,999,3.466,1,1345,2015-10-27T15:09:56.384Z
0,27.38,143,-93,36.42,1007.26,999,3.466,1,1342,2015-10-27T15:09:00.545Z
0,27.34,137,-89,36.55,1007.35,999,3.466,1,1344,2015-10-27T15:08:07.464Z
0,27.38,140,-93,36.32,1007.23,999,3.466,1,1337,2015-10-27T15:07:03.607Z
0,27.43,140,-84,36.41,1007.27,999,3.466,1,1335,2015-10-27T15:06:16.809Z
0,27.38,143,-93,36.45,1007.29,999,3.461,1,1340,2015-10-27T15:05:14.502Z
0,27.38,144,-93,36.89,1007.29,999,3.466,1,1340,2015-10-27T15:04:11.304Z
0,27.32,140,-89,36.62,1007.24,999,3.461,1,1342,2015-10-27T15:03:22.000Z
0,27.23,142,-90,36.67,1007.32,999,3.466,1,1343,2015-10-27T15:02:23.822Z
0,27.19,142,-93,36.7,1007.31,999,3.461,1,1342,2015-10-27T15:01:28.281Z
0,27.16,135,-89,36.9,1007.3,999,3.466,1,1343,2015-10-27T15:00:29.406Z
0,27.26,135,-87,37.06,1007.35,999,3.466,1,1358,2015-10-27T14:59:26.084Z
0,27.36,140,-93,36.16,1007.4,999,3.466,1,1379,2015-10-27T14:58:28.845Z
0,27.36,140,-95,36.32,1007.38,999,3.466,1,1350,2015-10-27T14:57:43.286Z
0,27.24,142,-93,36.34,1007.39,999,3.466,1,1347,2015-10-27T14:56:39.850Z
0,27.11,137,-90,36.61,1007.47,999,3.466,1,1344,2015-10-27T14:55:37.287Z
0,27.11,140,-93,36.7,1007.44,999,3.466,1,1340,2015-10-27T14:54:43.846Z
100,27.09,135,-82,36.57,1007.46,999,3.466,1,1342,2015-10-27T14:53:43.597Z
0,27.35,140,-90,36.25,1007.47,999,3.466,1,1344,2015-10-27T14:52:54.477Z
100,27.37,131,-81,36.22,1007.54,999,3.466,1,1342,2015-10-27T14:51:49.986Z
100,27.55,124,-80,36.8,1007.54,999,3.466,1,1369,2015-10-27T14:51:01.091Z
100,27.82,126,-48,35.41,1007.4,999,3.471,1,1347,2015-10-27T14:50:05.644Z
100,27.98,120,-74,35.16,1007.51,999,3.471,1,1351,2015-10-27T14:49:08.831Z
0,28.16,119,-72,34.9,1007.44,999,3.471,1,1347,2015-10-27T14:48:09.083Z
0,28.17,120,-69,35.18,1007.53,999,3.471,1,1355,2015-10-27T14:47:14.054Z
0,28.19,132,-89,35.14,1007.54,999,3.471,1,1348,2015-10-27T14:46:18.985Z
0,28.19,120,-72,35.07,1007.52,999,3.471,1,1356,2015-10-27T14:45:18.478Z
0,28.13,118,-77,35.34,1007.41,999,3.471,1,1347,2015-10-27T14:44:24.446Z
0,28.09,120,-73,35.42,1007.48,999,3.471,1,1351,2015-10-27T14:43:21.382Z
100,28.02,113,-72,35.59,1007.35,999,3.471,1,1353,2015-10-27T14:42:24.805Z
0,28.18,135,-89,35.38,1007.46,999,3.471,1,1348,2015-10-27T14:41:34.787Z
0,28.33,115,-71,35.19,1007.48,999,3.471,1,1360,2015-10-27T14:40:31.166Z
0,28.19,124,-74,35.41,1007.52,999,3.471,1,1356,2015-10-27T14:39:32.040Z
0,28.16,119,-73,35.51,1007.46,999,3.471,1,1351,2015-10-27T14:38:59.891Z
0,28.1,119,-72,35.51,1007.48,999,3.471,1,1350,2015-10-27T14:38:03.560Z
0,28.02,134,-82,35.7,1007.47,999,3.471,1,1340,2015-10-27T14:36:57.136Z
0,28.05,119,-74,35.7,1007.46,999,3.471,1,1359,2015-10-27T14:35:53.629Z
100,28.11,115,-71,35.58,1007.52,999,3.471,1,1350,2015-10-27T14:34:48.590Z
0,28.31,131,-80,35.53,1007.42,999,3.471,1,1348,2015-10-27T14:34:13.447Z
0,28.25,118,-72,35.34,1007.5,999,3.471,1,1356,2015-10-27T14:33:07.527Z
0,28.17,129,-84,35.45,1007.39,999,3.471,1,1343,2015-10-27T14:31:59.350Z
0,28.2,131,-81,35.34,1007.46,999,3.471,1,1334,2015-10-27T14:31:13.380Z
0,28.3,136,-84,35.26,1007.43,999,3.471,1,1347,2015-10-27T14:30:07.030Z
0,28.3,135,-84,35.36,1007.4,999,3.471,1,1343,2015-10-27T14:29:16.521Z
0,28.29,131,-81,35.13,1007.42,999,3.471,1,1345,2015-10-27T14:27:27.139Z
0,28.38,118,-68,35.16,1007.46,999,3.471,1,1353,2015-10-27T14:26:25.408Z
0,28.45,120,-72,34.91,1007.33,999,3.471,1,1352,2015-10-27T14:25:39.694Z
0,28.45,115,-68,35.08,1007.39,999,3.471,1,1351,2015-10-27T14:24:34.381Z
100,28.37,120,-72,35.36,1007.42,999,3.471,1,1347,2015-10-27T14:23:31.065Z
0,28.12,115,-72,35.41,1007.4,999,3.471,1,1359,2015-10-27T14:22:35.726Z
0,28.11,135,-82,35.48,1007.33,999,3.471,1,1343,2015-10-27T14:21:43.279Z
100000,28.24,119,-76,35.28,1007.37,999,3.471,1,1347,2015-10-27T14:20:52.399Z
100000,28.37,224,30,34.89,1007.44,999,3.471,1,1366,2015-10-27T14:19:47.636Z
0,28.5,135,-82,34.94,1007.39,999,3.471,1,1340,2015-10-27T14:18:52.497Z
0,28.48,120,-72,35.15,1007.41,999,3.471,1,1353,2015-10-27T14:17:50.189Z
0,28.53,121,-73,34.84,1007.35,999,3.471,1,1350,2015-10-27T14:16:53.779Z
0,28.54,136,-89,34.48,1007.33,999,3.471,1,1342,2015-10-27T14:16:17.768Z
0,28.55,135,-89,34.54,1007.28,999,3.471,1,1343,2015-10-27T14:15:20.357Z
0,28.54,137,-93,34.54,1007.28,999,3.471,1,1350,2015-10-27T14:14:27.089Z
0,28.54,126,-77,34.51,1007.3,999,3.471,1,1351,2015-10-27T14:13:23.430Z
0,28.52,120,-77,34.51,1007.38,999,3.471,1,1350,2015-10-27T14:12:29.332Z
0,28.48,136,-85,34.61,1007.39,999,3.471,1,1342,2015-10-27T14:11:31.367Z
0,28.48,120,-72,34.58,1007.39,999,3.471,1,1351,2015-10-27T14:10:27.426Z
0,28.51,124,-73,34.58,1007.3,999,3.471,1,1351,2015-10-27T14:09:33.495Z
0,28.45,147,-98,34.67,1007.43,999,3.471,1,1360,2015-10-27T14:08:41.214Z
0,28.59,124,-77,34.41,1007.38,999,3.471,1,1353,2015-10-27T14:07:40.360Z
0,28.56,123,-72,34.48,1007.39,999,3.471,1,1351,2015-10-27T14:06:54.127Z
0,28.61,136,-84,34.44,1007.41,999,3.471,1,1347,2015-10-27T14:05:51.352Z
0,28.56,137,-89,34.48,1007.4,999,3.466,1,1356,2015-10-27T14:04:49.314Z
0,28.54,134,-89,34.51,1007.34,999,3.471,1,1345,2015-10-27T14:03:45.601Z
0,28.52,120,-72,34.44,1007.34,999,3.471,1,1347,2015-10-27T14:03:03.770Z
0,28.55,127,-80,34.44,1007.35,999,3.471,1,1351,2015-10-27T14:02:08.601Z
0,28.59,124,-80,34.37,1007.33,999,3.471,1,1350,2015-10-27T14:00:53.108Z
0,28.56,124,-80,34.44,1007.32,999,3.471,1,1351,2015-10-27T14:00:20.738Z
0,28.56,131,-80,34.41,1007.26,999,3.471,1,1347,2015-10-27T13:59:11.233Z
0,28.52,118,-77,34.41,1007.31,999,3.471,1,1352,2015-10-27T13:57:28.117Z
0,28.52,115,-72,34.41,1007.3,999,3.471,1,1352,2015-10-27T13:58:02.606Z
0,28.47,126,-72,34.44,1007.35,999,3.471,1,1355,2015-10-27T13:56:50.109Z
0,28.45,115,-74,34.48,1007.38,999,3.471,1,1351,2015-10-27T13:55:30.985Z
0,28.52,120,-77,34.37,1007.33,999,3.471,1,1356,2015-10-27T13:54:39.292Z
0,28.5,126,-77,34.37,1007.37,999,3.471,1,1351,2015-10-27T13:53:43.740Z
0,28.54,134,-80,34.34,1007.37,999,3.471,1,1347,2015-10-27T13:51:55.955Z
0,28.52,135,-84,34.34,1007.36,999,3.471,1,1351,2015-10-27T13:52:24.106Z
0,28.32,131,-80,34.62,1007.44,999,3.471,1,1347,2015-10-27T13:49:49.102Z
0,28.45,120,-74,34.48,1007.38,999,3.471,1,1355,2015-10-27T13:50:30.257Z
0,28.33,115,-73,34.66,1007.45,999,3.471,1,1356,2015-10-27T13:48:37.128Z
0,28.45,120,-69,34.44,1007.44,999,3.471,1,1351,2015-10-27T13:47:41.225Z
0,28.4,131,-87,34.55,1007.4,999,3.471,1,1347,2015-10-27T13:46:44.040Z
0,28.38,147,-97,34.62,1007.48,999,3.471,1,1351,2015-10-27T13:45:07.877Z
0,28.39,143,-93,34.52,1007.44,999,3.471,1,1358,2015-10-27T13:45:52.747Z
0,28.35,120,-72,34.62,1007.51,999,3.471,1,1356,2015-10-27T13:44:10.431Z
100,28.33,119,-68,34.62,1007.54,999,3.471,1,1351,2015-10-27T13:43:16.989Z
0,28.51,119,-71,34.41,1007.47,999,3.471,1,1356,2015-10-27T13:42:13.147Z
0,28.45,135,-84,34.51,1007.61,999,3.471,1,1351,2015-10-27T13:41:24.033Z
0,28.5,135,-84,34.41,1007.48,999,3.471,1,1344,2015-10-27T13:40:24.617Z
0,28.61,134,-89,34.34,1007.66,999,3.466,1,1344,2015-10-27T13:39:24.920Z
0,28.6,147,-97,34.34,1007.61,999,3.471,1,1352,2015-10-27T13:38:38.183Z
0,28.65,123,-73,34.36,1007.56,999,3.471,1,1347,2015-10-27T13:37:33.345Z
0,28.62,120,-72,34.39,1007.64,999,3.471,1,1352,2015-10-27T13:36:39.435Z
0,28.61,119,-72,34.41,1007.57,999,3.471,1,1350,2015-10-27T13:35:42.587Z
0,28.66,120,-77,34.46,1007.42,999,3.471,1,1351,2015-10-27T13:34:55.529Z
0,28.62,131,-84,34.44,1007.6,999,3.471,1,1348,2015-10-27T13:33:36.520Z
0,28.6,135,-84,34.54,1007.57,999,3.471,1,1345,2015-10-27T13:32:54.878Z
0,28.53,134,-87,34.64,1007.52,999,3.471,1,1350,2015-10-27T13:32:03.041Z
0,28.51,120,-72,34.67,1007.55,999,3.471,1,1356,2015-10-27T13:31:07.044Z
0,28.54,127,-81,34.58,1007.59,999,3.471,1,1347,2015-10-27T13:29:59.218Z
0,28.6,135,-80,34.51,1007.54,999,3.471,1,1345,2015-10-27T13:29:14.540Z
0,28.61,135,-84,34.54,1007.61,999,3.471,1,1347,2015-10-27T13:28:24.968Z
0,28.6,118,-71,34.58,1007.61,999,3.471,1,1356,2015-10-27T13:27:10.486Z
0,28.59,131,-84,34.61,1007.62,999,3.471,1,1347,2015-10-27T13:26:03.319Z
0,28.52,132,-82,34.77,1007.62,999,3.471,1,1352,2015-10-27T13:25:05.650Z
0,28.45,123,-72,35,1007.63,999,3.471,1,1356,2015-10-27T13:24:07.632Z
0,28.44,121,-80,35,1007.54,999,3.471,1,1347,2015-10-27T13:23:29.404Z
0,28.56,119,-74,34.74,1007.61,999,3.471,1,1350,2015-10-27T13:22:14.719Z
0,28.66,143,-97,34.77,1007.6,999,3.471,1,1359,2015-10-27T13:20:54.188Z
0,28.67,137,-88,34.59,1007.63,999,3.471,1,1342,2015-10-27T13:21:17.333Z
0,28.7,135,-82,34.66,1007.62,999,3.471,1,1347,2015-10-27T13:19:42.257Z
0,28.72,120,-72,34.63,1007.57,999,3.471,1,1352,2015-10-27T13:18:34.587Z
0,28.75,135,-80,34.63,1007.59,999,3.471,1,1347,2015-10-27T13:17:45.574Z
0,28.76,120,-72,34.63,1007.56,999,3.471,1,1358,2015-10-27T13:16:55.958Z
0,28.75,121,-72,34.63,1007.61,999,3.471,1,1351,2015-10-27T13:15:53.449Z
0,28.77,118,-73,34.59,1007.57,999,3.471,1,1351,2015-10-27T13:14:49.208Z
0,28.79,135,-85,34.56,1007.62,999,3.471,1,1344,2015-10-27T13:13:09.773Z
0,28.79,119,-73,34.56,1007.59,999,3.471,1,1344,2015-10-27T13:13:52.469Z
0,28.77,119,-77,34.59,1007.64,999,3.471,1,1344,2015-10-27T13:12:15.701Z
0,28.76,145,-100,34.63,1007.65,999,3.471,1,1353,2015-10-27T13:11:10.016Z
0,28.83,120,-72,34.61,1007.6,999,3.471,1,1351,2015-10-27T13:09:21.118Z
0,28.82,136,-84,34.61,1007.62,999,3.471,1,1342,2015-10-27T13:10:00.974Z
0,28.76,121,-73,34.73,1007.67,999,3.471,1,1351,2015-10-27T13:08:08.732Z
0,28.79,120,-73,34.7,1007.67,999,3.471,1,1350,2015-10-27T13:07:14.906Z
0,28.79,120,-71,34.66,1007.65,999,3.471,1,1351,2015-10-27T13:06:33.597Z
0,28.75,135,-85,34.73,1007.74,999,3.471,1,1344,2015-10-27T13:05:21.178Z
0,28.81,123,-77,34.61,1007.67,999,3.471,1,1347,2015-10-27T13:04:22.105Z
0,28.79,135,-81,34.73,1007.74,999,3.471,1,1347,2015-10-27T13:03:37.593Z
0,28.8,120,-74,34.68,1007.69,999,3.471,1,1347,2015-10-27T13:02:41.524Z
0,28.77,124,-80,34.7,1007.72,999,3.471,1,1346,2015-10-27T13:01:49.767Z
0,28.75,121,-72,34.77,1007.7,999,3.471,1,1347,2015-10-27T13:00:45.632Z
0,28.77,116,-72,34.66,1007.65,999,3.471,1,1353,2015-10-27T12:59:52.652Z
0,28.81,120,-77,34.61,1007.71,999,3.471,1,1351,2015-10-27T12:59:10.005Z
0,28.89,119,-71,34.61,1007.61,999,3.471,1,1347,2015-10-27T12:57:48.304Z
0,28.83,124,-77,34.74,1007.66,999,3.471,1,1347,2015-10-27T12:56:09.765Z
0,28.87,118,-72,34.68,1007.73,999,3.471,1,1351,2015-10-27T12:56:46.868Z
0,28.82,120,-77,34.68,1007.72,999,3.471,1,1352,2015-10-27T12:54:53.746Z
0,28.81,120,-74,34.68,1007.75,999,3.471,1,1347,2015-10-27T12:53:23.783Z
0,28.85,134,-89,34.71,1007.67,999,3.471,1,1344,2015-10-27T12:53:57.742Z
0,28.85,137,-90,34.64,1007.73,999,3.471,1,1347,2015-10-27T12:52:24.760Z
0,28.89,142,-93,34.58,1007.75,999,3.471,1,1356,2015-10-27T12:51:30.110Z
0,28.9,135,-84,34.64,1007.66,999,3.471,1,1342,2015-10-27T12:50:10.887Z
0,28.9,135,-84,34.58,1007.77,999,3.471,1,1344,2015-10-27T12:49:14.833Z
0,28.86,143,-95,34.74,1007.72,999,3.471,1,1359,2015-10-27T12:48:23.871Z
0,28.89,121,-76,34.68,1007.74,999,3.471,1,1356,2015-10-27T12:47:30.552Z
0,28.84,119,-72,34.78,1007.76,999,3.471,1,1352,2015-10-27T12:46:25.888Z
0,28.87,136,-84,34.78,1007.8,999,3.471,1,1344,2015-10-27T12:45:28.034Z
0,28.89,120,-77,34.81,1007.77,999,3.471,1,1351,2015-10-27T12:44:31.709Z
0,28.89,124,-72,34.88,1007.81,999,3.471,1,1343,2015-10-27T12:43:44.633Z
0,28.9,120,-72,34.85,1007.85,999,3.471,1,1344,2015-10-27T12:42:50.708Z
0,28.91,135,-84,34.85,1007.93,999,3.471,1,1344,2015-10-27T12:41:58.029Z
0,28.91,124,-76,34.88,1007.83,999,3.466,1,1356,2015-10-27T12:40:56.703Z
0,28.91,123,-77,34.91,1007.92,999,3.466,1,1348,2015-10-27T12:39:52.667Z
0,28.91,119,-72,34.95,1007.85,999,3.471,1,1351,2015-10-27T12:39:08.424Z
0,28.92,135,-81,34.95,1007.92,999,3.471,1,1347,2015-10-27T12:38:04.312Z
0,28.91,127,-79,35.05,1007.88,999,3.471,1,1351,2015-10-27T12:37:05.734Z
0,28.91,124,-77,35.08,1008.03,999,3.471,1,1351,2015-10-27T12:35:28.405Z
0,28.89,119,-72,35.05,1007.97,999,3.471,1,1351,2015-10-27T12:36:03.281Z
0,28.86,134,-82,35.19,1007.99,999,3.471,1,1343,2015-10-27T12:34:09.423Z
0,28.96,118,-71,35.12,1008.06,999,3.471,1,1350,2015-10-27T12:33:35.539Z
0,28.97,120,-76,35.15,1007.95,999,3.471,1,1344,2015-10-27T12:32:35.727Z
0,28.95,120,-77,35.22,1008.06,999,3.471,1,1351,2015-10-27T12:31:33.696Z
0,28.87,120,-72,35.32,1008.03,999,3.471,1,1351,2015-10-27T12:29:46.615Z
0,28.91,135,-87,35.35,1008.08,999,3.471,1,1347,2015-10-27T12:28:30.785Z
0,28.91,131,-82,35.52,1007.99,999,3.471,1,1345,2015-10-27T12:26:51.489Z
0,28.9,123,-74,35.32,1008.03,999,3.471,1,1351,2015-10-27T12:27:34.635Z
0,28.92,116,-72,35.35,1008.1,999,3.471,1,1355,2015-10-27T12:25:40.933Z
0,28.85,115,-73,36.03,1008.08,999,3.471,1,1347,2015-10-27T12:24:44.636Z
100,28.95,124,-72,36.06,1008.07,999,3.476,1,1344,2015-10-27T12:23:48.885Z
0,29.2,124,-77,35.96,1008.13,999,3.471,1,1351,2015-10-27T12:22:08.909Z
0,29.11,120,-74,36.11,1008.07,999,3.476,1,1350,2015-10-27T12:22:52.679Z
0,29.13,120,-74,36.22,1008.08,999,3.471,1,1347,2015-10-27T12:21:01.841Z
0,29.11,124,-82,36.04,1008.1,999,3.471,1,1347,2015-10-27T12:20:11.378Z
100,29.09,121,-77,36.25,1008.1,999,3.471,1,1352,2015-10-27T12:19:05.987Z
0,29.11,126,-74,36.08,1008.16,999,3.471,1,1355,2015-10-27T12:17:34.660Z
100,28.87,127,-79,36.53,1008.2,999,3.471,1,1350,2015-10-27T12:18:10.941Z
0,29.08,118,-71,36.25,1008.16,999,3.471,1,1350,2015-10-27T12:16:28.860Z
100,29.05,127,-77,36.18,1008.16,999,3.471,1,1351,2015-10-27T12:15:34.172Z
0,29.21,124,-77,35.9,1008.2,999,3.471,1,1351,2015-10-27T12:14:41.931Z
0,29.23,124,-77,35.9,1008.19,999,3.471,1,1347,2015-10-27T12:13:38.917Z
0,29.23,121,-72,35.96,1008.27,999,3.471,1,1351,2015-10-27T12:12:46.079Z
0,29.19,121,-72,36.03,1008.24,999,3.471,1,1350,2015-10-27T12:11:53.658Z
0,29.13,126,-77,36.08,1008.31,999,3.471,1,1352,2015-10-27T12:11:01.046Z
100,29.14,121,-76,36.06,1008.3,999,3.476,1,1345,2015-10-27T12:09:54.813Z
0,28.95,123,-72,36.29,1008.35,999,3.476,1,1352,2015-10-27T12:09:02.981Z
0,29.09,126,-73,36.08,1008.38,999,3.476,1,1351,2015-10-27T12:08:10.535Z
0,29.18,121,-80,35.93,1008.27,999,3.471,1,1343,2015-10-27T12:06:53.027Z
0,29.14,124,-76,36.06,1008.27,999,3.471,1,1347,2015-10-27T12:06:10.608Z
0,29.1,127,-80,36.15,1008.33,999,3.471,1,1344,2015-10-27T12:05:13.046Z
0,29.15,124,-79,35.96,1008.3,999,3.471,1,1347,2015-10-27T12:04:45.100Z
0,29.11,124,-79,36.18,1008.37,999,3.471,1,1350,2015-10-27T12:03:10.407Z
0,29.01,142,-97,36.22,1008.32,999,3.471,1,1351,2015-10-27T12:02:21.826Z
0,28.91,124,-77,36.26,1008.49,999,3.471,1,1350,2015-10-27T12:01:56.306Z
0,29,124,-74,36.08,1008.46,999,3.471,1,1347,2015-10-27T12:00:18.058Z
0,28.91,127,-77,36.29,1008.43,999,3.471,1,1352,2015-10-27T11:59:38.244Z
0,28.81,118,-77,36.53,1008.45,999,3.476,1,1351,2015-10-27T11:58:24.963Z
0,28.74,121,-77,36.48,1008.44,999,3.476,1,1352,2015-10-27T11:57:27.668Z
0,28.8,124,-77,36.36,1008.52,999,3.471,1,1353,2015-10-27T11:56:35.376Z
0,28.83,123,-73,36.19,1008.44,999,3.471,1,1350,2015-10-27T11:55:55.059Z
0,28.83,123,-77,36.39,1008.53,999,3.471,1,1353,2015-10-27T11:54:38.360Z
100,28.79,124,-73,36.24,1008.59,999,3.476,1,1350,2015-10-27T11:53:42.234Z
0,28.96,126,-80,36.03,1008.59,999,3.476,1,1344,2015-10-27T11:52:45.863Z
0,28.95,124,-74,36.12,1008.64,999,3.471,1,1347,2015-10-27T11:51:49.418Z
0,29.08,124,-80,35.87,1008.57,999,3.471,1,1351,2015-10-27T11:51:02.744Z
0,29.14,124,-77,36.2,1008.59,999,3.476,1,1344,2015-10-27T11:50:04.284Z
0,29.26,119,-73,36.06,1008.65,999,3.471,1,1351,2015-10-27T11:48:05.646Z
0,29.2,123,-77,36.33,1008.7,999,3.476,1,1352,2015-10-27T11:47:06.881Z
0,29.16,121,-77,36.03,1008.57,999,3.476,1,1340,2015-10-27T11:46:17.027Z
0,29.25,120,-72,36.5,1008.63,999,3.471,1,1353,2015-10-27T11:45:31.995Z
0,29.18,123,-73,36.5,1008.71,999,3.476,1,1355,2015-10-27T11:44:19.619Z
0,29.21,123,-71,36.44,1008.59,999,3.476,1,1350,2015-10-27T11:43:21.242Z
100,29.25,121,-74,36.33,1008.66,999,3.471,1,1347,2015-10-27T11:41:49.618Z
0,29.21,124,-77,36.44,1008.61,999,3.476,1,1347,2015-10-27T11:42:24.901Z
0,29.41,121,-77,36.19,1008.72,999,3.471,1,1351,2015-10-27T11:40:34.879Z
0,29.37,119,-73,36.22,1008.7,999,3.471,1,1352,2015-10-27T11:39:35.951Z
0,29.31,120,-71,36.47,1008.7,999,3.476,1,1353,2015-10-27T11:38:39.606Z
0,29.28,121,-73,36.3,1008.65,999,3.476,1,1350,2015-10-27T11:37:53.855Z
0,29.27,123,-72,36.13,1008.73,999,3.471,1,1358,2015-10-27T11:36:47.721Z
0,29.37,124,-73,36.49,1008.69,999,3.471,1,1351,2015-10-27T11:35:50.587Z
0,29.37,124,-73,36.45,1008.77,999,3.476,1,1358,2015-10-27T11:34:54.278Z
0,29.28,119,-72,36.61,1008.75,999,3.471,1,1347,2015-10-27T11:33:57.952Z
0,29.33,121,-71,36.49,1008.8,999,3.476,1,1348,2015-10-27T11:33:10.701Z
0,29.3,127,-72,36.64,1008.77,999,3.476,1,1350,2015-10-27T11:32:05.328Z
0,29.37,124,-71,36.49,1008.82,999,3.476,1,1351,2015-10-27T11:31:12.514Z
0,29.37,123,-77,36.42,1008.82,999,3.476,1,1345,2015-10-27T11:30:14.356Z
0,29.33,120,-79,36.49,1008.76,999,3.476,1,1347,2015-10-27T11:29:16.418Z
0,29.2,121,-82,36.61,1008.79,999,3.476,1,1348,2015-10-27T11:28:21.215Z
0,29.28,121,-72,36.4,1008.86,999,3.476,1,1356,2015-10-27T11:27:24.759Z
0,29.25,120,-80,36.5,1008.85,999,3.476,1,1351,2015-10-27T11:26:30.607Z
0,29.13,120,-73,36.68,1008.76,999,3.471,1,1351,2015-10-27T11:25:34.255Z
0,29.21,121,-71,36.57,1008.83,999,3.476,1,1359,2015-10-27T11:24:37.412Z
0,29.15,120,-80,36.73,1008.91,999,3.476,1,1347,2015-10-27T11:23:40.408Z
0,29.19,123,-72,36.57,1008.97,999,3.476,1,1358,2015-10-27T11:22:42.593Z
0,29.21,120,-72,36.61,1008.9,999,3.476,1,1359,2015-10-27T11:21:46.657Z
0,29.27,124,-72,36.5,1008.88,999,3.476,1,1347,2015-10-27T11:20:50.220Z
0,29.15,120,-71,36.73,1008.9,999,3.476,1,1356,2015-10-27T11:19:58.175Z
0,29.03,124,-77,36.85,1008.91,999,3.476,1,1352,2015-10-27T11:18:56.566Z
0,29.04,127,-79,36.82,1008.9,999,3.476,1,1351,2015-10-27T11:18:01.944Z
0,29.15,121,-72,36.7,1008.93,999,3.476,1,1347,2015-10-27T11:17:13.413Z
0,29.22,123,-72,36.7,1008.76,999,3.476,1,1356,2015-10-27T11:16:08.004Z
0,29.36,127,-77,36.45,1008.97,999,3.476,1,1340,2015-10-27T11:15:11.464Z
0,29.37,121,-73,36.39,1008.88,999,3.476,1,1352,2015-10-27T11:14:15.545Z
0,29.37,123,-76,36.49,1008.93,999,3.471,1,1348,2015-10-27T11:13:24.362Z
0,29.36,124,-74,36.52,1008.9,999,3.471,1,1350,2015-10-27T11:12:22.266Z
0,29.31,127,-74,36.37,1008.94,999,3.476,1,1344,2015-10-27T11:11:25.856Z
0,29.34,124,-72,36.49,1008.81,999,3.471,1,1351,2015-10-27T11:10:29.744Z
0,29.31,124,-71,36.49,1008.92,999,3.471,1,1350,2015-10-27T11:09:33.237Z
0,29.24,142,-84,36.54,1008.92,999,3.476,1,1356,2015-10-27T11:08:37.378Z
0,29.28,120,-72,36.4,1008.94,999,3.471,1,1350,2015-10-27T11:07:40.905Z
0,29.26,79,-57,36.5,1008.87,999,3.476,1,1366,2015-10-27T11:06:59.997Z
0,29.22,83,-57,36.5,1008.91,999,3.476,1,1363,2015-10-27T11:06:08.368Z
0,29.22,123,-72,36.54,1008.89,999,3.471,1,1356,2015-10-27T11:04:51.489Z
0,29.13,126,-71,36.65,1008.89,999,3.471,1,1353,2015-10-27T11:03:55.380Z
0,29,131,-71,36.85,1008.88,999,3.471,1,1343,2015-10-27T11:03:12.447Z
0,28.92,124,-72,36.93,1008.93,999,3.471,1,1351,2015-10-27T11:02:02.191Z
0,28.95,120,-68,36.9,1008.97,999,3.471,1,1352,2015-10-27T11:01:06.577Z
0,28.95,126,-72,36.86,1008.88,999,3.471,1,1351,2015-10-27T11:00:11.195Z
0,28.91,126,-72,36.86,1008.9,999,3.471,1,1344,2015-10-27T10:59:13.452Z
0,28.98,134,-77,36.85,1008.87,999,3.471,1,1348,2015-10-27T10:58:22.761Z
0,28.94,137,-93,36.93,1008.88,999,3.471,1,1359,2015-10-27T10:57:20.939Z
0,28.89,127,-74,37,1008.87,999,3.471,1,1344,2015-10-27T10:56:25.555Z
0,28.91,120,-69,36.86,1008.89,999,3.471,1,1351,2015-10-27T10:55:30.476Z
0,28.84,131,-73,36.93,1008.95,999,3.471,1,1345,2015-10-27T10:54:35.908Z
0,28.98,126,-69,36.73,1008.93,999,3.476,1,1342,2015-10-27T10:53:52.338Z
0,28.93,131,-74,36.83,1008.86,999,3.476,1,1347,2015-10-27T10:52:39.788Z
0,28.99,120,-68,36.82,1008.91,999,3.476,1,1352,2015-10-27T10:51:46.467Z
0,29.11,131,-76,36.68,1008.98,999,3.471,1,1347,2015-10-27T10:50:44.953Z
0,29.08,131,-71,36.72,1009.01,999,3.471,1,1344,2015-10-27T10:49:48.943Z
100,28.98,127,-80,36.96,1009.02,999,3.471,1,1342,2015-10-27T10:48:52.043Z
0,28.81,126,-77,37.3,1008.99,999,3.471,1,1344,2015-10-27T10:47:56.682Z
0,28.7,126,-65,37.15,1009.02,999,3.471,1,1344,2015-10-27T10:46:59.086Z
100,28.6,127,-72,37.57,1008.99,999,3.471,1,1340,2015-10-27T10:46:03.022Z
0,28.46,126,-79,37.3,1009.06,999,3.471,1,1347,2015-10-27T10:44:09.508Z
0,28.54,81,-53,36.86,1009,999,3.471,1,1368,2015-10-27T10:43:12.935Z
0,28.57,83,-61,36.99,1009.04,999,3.471,1,1372,2015-10-27T10:42:16.806Z
0,28.46,126,-73,36.86,1008.95,999,3.471,1,1347,2015-10-27T10:41:20.770Z
0,28.6,132,-90,36.59,1008.98,999,3.476,1,1353,2015-10-27T10:40:24.001Z
100,28.66,168,-64,36.48,1008.96,999,3.471,1,1363,2015-10-27T10:39:27.252Z
0,28.48,172,-79,36.69,1009.08,999,3.471,1,1374,2015-10-27T10:38:30.074Z
0,28.59,140,-80,36.56,1009.03,999,3.471,1,1356,2015-10-27T10:37:42.857Z
0,28.55,131,-77,36.56,1009.1,999,3.471,1,1361,2015-10-27T10:36:38.263Z
0,28.64,134,-77,36.48,1008.96,999,3.471,1,1352,2015-10-27T10:35:40.545Z
0,28.71,142,-77,36.48,1009.06,999,3.471,1,1351,2015-10-27T10:34:52.220Z
0,28.66,179,-74,36.48,1009.03,999,3.471,1,1359,2015-10-27T10:34:01.081Z
100000,28.66,135,-88,36.41,1009.08,999,3.471,1,1347,2015-10-27T10:32:50.865Z
0,28.78,180,-32,36.24,1009.09,999,3.471,1,1344,2015-10-27T10:32:07.415Z
0,28.81,176,-55,36.12,1009.06,999,3.471,1,1361,2015-10-27T10:31:10.267Z
100100,28.91,147,-80,35.86,1009.05,999,3.471,1,1356,2015-10-27T10:30:12.654Z
100100,29.12,206,-36,35.58,1009.03,999,3.471,1,1363,2015-10-27T10:29:04.512Z
100000,29.43,81,-1,34.97,1009.01,999,3.476,1,1337,2015-10-27T10:28:10.622Z
0,29.5,188,-34,35.09,1008.9,999,3.471,1,1376,2015-10-27T10:27:11.976Z
1000000,29.55,204,-24,34.79,1008.88,999,3.471,1,1358,2015-10-27T10:26:27.507Z
0,29.58,209,-9,35.83,1008.81,92,3.354,1,1368,2015-10-27T10:25:19.623Z
0,29.61,220,-15,34.62,1008.73,719,3.354,1,1367,2015-10-27T10:24:22.777Z
0,29.63,231,-16,34.52,1008.89,724,3.354,1,1372,2015-10-27T10:23:43.039Z
0,29.67,223,-10,34.44,1008.87,707,3.354,1,1371,2015-10-27T10:22:29.477Z
0,29.58,217,-10,34.62,1009.03,627,3.354,1,1374,2015-10-27T10:21:32.455Z
0,29.56,214,-8,34.62,1008.98,631,3.354,1,1376,2015-10-27T10:20:52.271Z
0,29.46,211,-4,34.71,1008.98,628,3.354,1,1368,2015-10-27T10:19:38.980Z
0,29.48,223,-13,34.67,1009.07,631,3.354,1,1379,2015-10-27T10:18:54.946Z
0,29.46,222,-15,34.71,1009.08,631,3.354,1,1374,2015-10-27T10:17:57.730Z
0,29.45,209,-9,34.74,1009.04,633,3.354,1,1376,2015-10-27T10:16:49.128Z
0,29.49,216,-10,34.48,1009.05,631,3.354,1,1372,2015-10-27T10:15:52.125Z
0,29.52,224,-9,34.72,1009.02,631,3.354,1,1368,2015-10-27T10:14:55.574Z
0,29.4,215,-10,34.67,1009.03,631,3.354,1,1376,2015-10-27T10:13:58.679Z
0,29.35,211,-9,34.84,1009,637,3.354,1,1372,2015-10-27T10:13:01.946Z
0,29.31,216,-10,34.87,1009.02,635,3.354,1,1372,2015-10-27T10:12:19.065Z
0,29.27,209,-8,34.85,1009.09,634,3.354,1,1382,2015-10-27T10:11:09.757Z
0,29.26,211,-13,34.85,1008.96,635,3.354,1,1385,2015-10-27T10:10:11.901Z
0,29.24,209,-9,35.06,1009.03,639,3.354,1,1376,2015-10-27T10:09:15.002Z
0,29.19,220,-15,35.12,1009.09,637,3.354,1,1372,2015-10-27T10:08:18.259Z
0,29.07,216,-13,35.07,1009.16,638,3.349,1,1377,2015-10-27T10:07:21.663Z
0,29.04,211,-10,35.34,1009.09,638,3.354,1,1376,2015-10-27T10:06:25.093Z
0,28.98,211,-9,35.1,1009.08,637,3.354,1,1372,2015-10-27T10:05:27.947Z
0,28.98,215,-8,35.13,1009.06,635,3.354,1,1375,2015-10-27T10:04:31.148Z
0,28.96,211,-13,34.98,1009,634,3.354,1,1379,2015-10-27T10:03:34.368Z
0,28.87,207,-9,34.98,1009.15,636,3.354,1,1372,2015-10-27T10:02:42.523Z
0,28.81,222,-16,35.08,1009.09,636,3.354,1,1372,2015-10-27T10:01:40.694Z
0,28.79,214,-5,34.9,1009.1,636,3.349,1,1375,2015-10-27T10:00:44.364Z
100,28.76,216,-8,34.96,1009.1,633,3.349,1,1369,2015-10-27T09:59:46.956Z
0,28.6,216,-8,35.15,1009.13,636,3.354,1,1372,2015-10-27T09:58:50.584Z
100,28.54,211,-5,35.18,1009.1,636,3.349,1,1368,2015-10-27T09:57:53.119Z
0,28.3,217,-8,35.29,1009.06,636,3.349,1,1371,2015-10-27T09:56:56.184Z
0,28.31,216,-13,35.36,1009.02,635,3.349,1,1368,2015-10-27T09:55:59.204Z
0,28.21,211,-10,35.48,1009.08,636,3.349,1,1372,2015-10-27T09:55:02.233Z
0,28.29,211,-7,35.43,1009.02,633,3.349,1,1372,2015-10-27T09:54:06.285Z
100,28.26,224,-8,35.48,1009.12,638,3.349,1,1372,2015-10-27T09:53:08.269Z
0,27.95,211,-5,35.86,1009.04,639,3.349,1,1372,2015-10-27T09:52:12.025Z
0,27.88,215,-8,35.87,1009.14,639,3.349,1,1368,2015-10-27T09:51:14.585Z
0,27.9,223,1,35.84,1009.11,640,3.349,1,1372,2015-10-27T09:50:17.194Z
0,27.95,223,-7,35.76,1009.08,642,3.349,1,1366,2015-10-27T09:49:20.483Z
0,27.9,216,-8,35.8,1009.1,644,3.349,1,1368,2015-10-27T09:48:24.482Z
0,27.81,223,-4,35.91,1009.04,646,3.349,1,1366,2015-10-27T09:47:27.635Z
100000,27.66,223,7,36.22,1008.96,648,3.349,1,1368,2015-10-27T09:46:31.500Z
100000,27.56,172,24,36.34,1009.03,648,3.344,1,1351,2015-10-27T09:45:31.834Z
100000,27.43,214,88,36.84,1009.03,647,3.344,1,1374,2015-10-27T09:44:34.711Z
100,27.36,150,-25,37.02,1009.01,824,3.344,1,1411,2015-10-27T09:43:37.725Z
100,26.93,151,-16,37.79,1008.97,833,3.339,1,1416,2015-10-27T09:42:39.888Z
100,26.2,160,3,39.22,1008.91,850,3.339,1,1424,2015-10-27T09:41:43.047Z
100100,25.22,160,-15,41.48,1008.91,849,3.334,1,1398,2015-10-27T09:40:45.067Z
100100,23.81,216,-7,44.5,1008.8,851,3.334,1,1350,2015-10-27T09:39:46.692Z
1111101,21.99,-10,-41,49.32,1009.01,176,3.33,1,1463,2015-10-27T09:38:48.430Z
0,21.38,-20,-68,50.96,1009.89,151,3.559,1,1374,2015-10-27T09:37:44.776Z
0,21.42,-25,-69,50.62,1009.81,154,3.559,1,1375,2015-10-27T09:36:46.874Z
100,16.4,-13,-68,64.54,1010.11,0,3.559,1,1364,2015-10-27T04:56:31.706Z
100,16.38,-7,-66,64.63,1010.06,0,3.559,1,1369,2015-10-27T04:54:35.723Z
100,16.41,3,-57,64.49,1010.16,0,3.559,1,1369,2015-10-27T04:55:32.795Z
100,16.39,-20,-68,64.57,1010.12,0,3.559,1,1366,2015-10-27T04:53:17.425Z
100,16.54,-21,-68,63.65,1010.12,0,3.559,1,1366,2015-10-27T04:51:35.043Z
100,16.5,-17,-65,63.82,1010.1,0,3.554,1,1363,2015-10-27T04:52:18.138Z
100,16.4,-16,-66,64.28,1010.29,0,3.559,1,1368,2015-10-27T04:50:35.241Z
100,16.32,19,-34,64.44,1010.35,0,3.559,1,1372,2015-10-27T04:49:19.307Z
100,16.44,-7,-64,63.85,1010.25,0,3.559,1,1368,2015-10-27T04:48:20.205Z
100,16.27,-12,-64,64.63,1010.44,0,3.559,1,1372,2015-10-27T04:46:57.617Z
100,16.27,-16,-68,64.44,1010.34,0,3.559,1,1364,2015-10-27T04:47:27.909Z
100,16.26,3,-64,64.6,1010.45,0,3.559,1,1368,2015-10-27T04:45:22.819Z
100,16.38,-2,-61,64.22,1010.38,0,3.559,1,1368,2015-10-27T04:43:56.857Z
100,16.32,24,-57,64.44,1010.38,0,3.559,1,1371,2015-10-27T04:44:35.677Z
100,16.51,-18,-65,63.57,1010.32,0,3.559,1,1368,2015-10-27T04:42:38.367Z
100,16.95,-17,-68,61.96,1010.43,0,3.559,1,1366,2015-10-27T04:41:24.242Z
100,16.8,-25,-72,62.73,1010.36,0,3.554,1,1361,2015-10-27T04:40:27.013Z
100,16.69,-20,-66,63.02,1010.28,0,3.559,1,1368,2015-10-27T04:39:31.317Z
100,16.42,-20,-69,63.88,1010.3,0,3.559,1,1368,2015-10-27T04:38:33.306Z
100,16.44,-16,-71,63.74,1010.38,0,3.559,1,1371,2015-10-27T04:37:37.073Z
100,16.66,-20,-69,63.11,1010.33,0,3.559,1,1367,2015-10-27T04:35:43.286Z
100,16.49,-16,-68,63.45,1010.26,0,3.554,1,1363,2015-10-27T04:36:26.224Z
100,16.73,-24,-71,62.73,1010.36,0,3.559,1,1360,2015-10-27T04:33:45.762Z
100,16.83,-20,-68,62.64,1010.35,0,3.559,1,1368,2015-10-27T04:34:40.363Z
100,16.52,-15,-66,63.51,1010.34,0,3.554,1,1366,2015-10-27T04:32:42.562Z
100,16.52,-20,-68,63.19,1010.32,0,3.559,1,1361,2015-10-27T04:30:48.620Z
100,16.44,-24,-64,63.42,1010.29,0,3.559,1,1368,2015-10-27T04:31:39.139Z
100,16.67,-13,-68,62.79,1010.3,0,3.559,1,1371,2015-10-27T04:29:57.514Z
100,16.67,-20,-71,62.82,1010.31,0,3.559,1,1360,2015-10-27T04:28:29.987Z
100,16.62,-16,-65,63.22,1010.33,0,3.559,1,1368,2015-10-27T04:27:32.075Z
100,16.76,-18,-68,63.07,1010.38,0,3.559,1,1368,2015-10-27T04:25:56.775Z
100,16.77,-5,-63,62.71,1010.2,0,3.559,1,1364,2015-10-27T04:26:31.700Z
100,16.38,-20,-72,64.14,1010.37,0,3.559,1,1366,2015-10-27T04:25:05.110Z
100,16.25,-20,-71,64.65,1010.34,0,3.559,1,1366,2015-10-27T04:23:48.027Z
100,16.11,-18,-68,65.09,1010.37,0,3.559,1,1363,2015-10-27T04:22:52.453Z
100,15.96,-23,-72,65.54,1010.4,0,3.559,1,1368,2015-10-27T04:21:53.470Z
100,15.93,-29,-73,65.57,1010.4,0,3.559,1,1363,2015-10-27T04:20:48.894Z
100,15.98,0,-65,65.11,1010.39,0,3.559,1,1369,2015-10-27T04:19:44.033Z
100,16.07,-17,-66,64.97,1010.37,0,3.559,1,1369,2015-10-27T04:18:47.072Z
100,16.04,9,-58,65.16,1010.4,0,3.559,1,1375,2015-10-27T04:17:58.899Z
100,16.09,-4,-61,64.84,1010.39,0,3.559,1,1367,2015-10-27T04:16:35.758Z
100,16.13,6,-61,64.65,1010.34,0,3.559,1,1367,2015-10-27T04:15:46.564Z
100,16.18,-4,-65,64.57,1010.32,0,3.559,1,1368,2015-10-27T04:15:09.524Z
100,16.06,-20,-64,64.89,1010.33,0,3.559,1,1364,2015-10-27T04:13:37.261Z
100,16.05,-4,-64,65,1010.28,0,3.559,1,1368,2015-10-27T04:12:37.659Z
100,16.09,-5,-64,64.68,1010.39,0,3.559,1,1369,2015-10-27T04:11:57.913Z
100,16.18,14,-52,64.47,1010.29,0,3.559,1,1371,2015-10-27T04:10:38.686Z
100,16.25,-16,-64,64.22,1010.28,0,3.554,1,1369,2015-10-27T04:09:48.072Z
100,16.37,-15,-66,63.62,1010.3,0,3.559,1,1375,2015-10-27T04:08:55.795Z
100,16.52,-21,-72,62.9,1010.3,0,3.559,1,1363,2015-10-27T04:07:46.788Z
100,16.87,-8,-61,61.7,1010.18,0,3.559,1,1368,2015-10-27T04:06:47.549Z
100,17.16,-16,-68,60.84,1010.2,0,3.559,1,1371,2015-10-27T04:05:55.645Z
100,17.3,-4,-64,60.52,1010.25,0,3.559,1,1368,2015-10-27T04:04:58.000Z
100,17.32,-20,-73,60.49,1010.14,0,3.559,1,1367,2015-10-27T04:03:44.003Z
100,17.31,-8,-66,60.32,1010.16,0,3.559,1,1368,2015-10-27T04:02:47.487Z
100,17.39,-23,-72,60.12,1010.15,0,3.559,1,1368,2015-10-27T04:01:44.299Z
100,17.37,-25,-71,60.09,1010.18,0,3.559,1,1366,2015-10-27T04:01:00.208Z
100,17.39,-23,-72,60.26,1010.17,0,3.559,1,1368,2015-10-27T03:59:57.571Z
100,17.2,-16,-66,60.98,1010.1,0,3.559,1,1368,2015-10-27T03:58:55.592Z
100,16.86,-25,-71,62.25,1010.15,0,3.559,1,1366,2015-10-27T03:57:58.321Z
100,16.61,-20,-71,63.02,1010.11,0,3.559,1,1366,2015-10-27T03:57:01.052Z
100,16.68,-13,-68,62.71,1010.13,0,3.559,1,1372,2015-10-27T03:56:05.970Z
100,16.7,-18,-66,62.59,1010.16,0,3.559,1,1368,2015-10-27T03:55:03.097Z
100,16.74,16,-52,62.42,1010.26,0,3.559,1,1368,2015-10-27T03:53:58.448Z
100,16.89,-16,-68,61.87,1010.21,0,3.559,1,1368,2015-10-27T03:53:03.082Z
100,17,-21,-68,61.42,1010.24,0,3.559,1,1367,2015-10-27T03:51:56.324Z
100,17.28,-18,-68,60.38,1010.24,0,3.559,1,1363,2015-10-27T03:50:56.302Z
100,17.36,-17,-65,60.35,1010.25,0,3.559,1,1372,2015-10-27T03:49:52.897Z
100,17.02,-24,-72,61.44,1010.29,0,3.559,1,1363,2015-10-27T03:48:52.708Z
100,16.63,0,-71,62.77,1010.23,0,3.559,1,1366,2015-10-27T03:47:54.702Z
100,16.66,-18,-64,62.59,1010.28,0,3.559,1,1368,2015-10-27T03:46:53.990Z
100,16.77,-20,-64,62.16,1010.14,0,3.559,1,1367,2015-10-27T03:46:06.898Z
100,16.84,-8,-64,61.73,1010.18,0,3.559,1,1368,2015-10-27T03:45:09.775Z
100,16.97,-16,-68,61.19,1010.19,0,3.559,1,1366,2015-10-27T03:43:57.032Z
100,16.93,-13,-65,61.47,1010.24,0,3.559,1,1368,2015-10-27T03:42:56.712Z
100,16.97,-18,-66,61.35,1010.19,0,3.559,1,1368,2015-10-27T03:42:08.814Z
100,16.78,-18,-69,62.04,1010.22,0,3.559,1,1366,2015-10-27T03:41:04.149Z
100,16.83,-16,-68,61.87,1010.3,0,3.559,1,1363,2015-10-27T03:40:01.754Z
100,16.79,-16,-64,62.04,1010.29,0,3.559,1,1361,2015-10-27T03:39:10.677Z
100,16.83,-25,-72,61.7,1010.2,0,3.559,1,1371,2015-10-27T03:38:00.976Z
100,16.78,-16,-64,61.99,1010.21,0,3.559,1,1364,2015-10-27T03:37:03.519Z
100,16.7,-17,-64,62.45,1010.35,0,3.559,1,1368,2015-10-27T03:36:07.991Z
100,16.69,-16,-65,62.51,1010.34,0,3.559,1,1372,2015-10-27T03:35:02.753Z
100,16.97,-8,-68,61.44,1010.46,0,3.559,1,1372,2015-10-27T03:34:02.563Z
100,17.03,-21,-66,61.27,1010.39,0,3.559,1,1360,2015-10-27T03:33:03.633Z
100,17.22,-8,-66,60.55,1010.39,0,3.559,1,1369,2015-10-27T03:32:10.525Z
100,17.47,-16,-65,59.77,1010.38,0,3.559,1,1366,2015-10-27T03:31:04.668Z
100,17.48,-16,-65,59.75,1010.33,0,3.559,1,1363,2015-10-27T03:30:05.494Z
100,17.55,-4,-61,59.54,1010.42,0,3.559,1,1366,2015-10-27T03:29:05.930Z
100,17.48,-21,-68,59.71,1010.48,0,3.559,1,1366,2015-10-27T03:28:06.631Z
100,17.43,-18,-69,59.8,1010.47,0,3.559,1,1363,2015-10-27T03:27:08.157Z
100,17.62,-20,-68,59.23,1010.5,0,3.559,1,1366,2015-10-27T03:26:08.977Z
100,17.56,-18,-68,59.37,1010.45,0,3.559,1,1363,2015-10-27T03:25:08.802Z
100,17.74,-20,-65,58.91,1010.41,0,3.559,1,1361,2015-10-27T03:24:10.210Z
100,17.62,-17,-68,59.17,1010.43,0,3.559,1,1367,2015-10-27T03:23:10.955Z
100,17.71,-10,-66,58.74,1010.38,0,3.559,1,1368,2015-10-27T03:22:11.115Z
100,17.58,-16,-64,59.34,1010.44,0,3.559,1,1369,2015-10-27T03:21:11.993Z
100,17.38,-16,-66,60.23,1010.47,0,3.559,1,1372,2015-10-27T03:20:12.537Z
100,17.09,-8,-64,61.13,1010.35,0,3.559,1,1372,2015-10-27T03:19:13.239Z
100,16.71,-21,-68,62.59,1010.38,0,3.554,1,1366,2015-10-27T03:18:14.579Z
100,16.33,14,-49,63.91,1010.42,0,3.559,1,1372,2015-10-27T03:17:14.550Z
100,16.28,-4,-64,64.14,1010.47,0,3.559,1,1367,2015-10-27T03:16:21.373Z
100,16.23,6,-65,64.33,1010.48,0,3.559,1,1366,2015-10-27T03:15:16.482Z
100,16.28,-16,-72,64.14,1010.46,0,3.559,1,1368,2015-10-27T03:14:28.854Z
100,16.41,-13,-66,63.51,1010.49,0,3.559,1,1364,2015-10-27T03:13:22.002Z
100,16.46,19,-41,63.34,1010.44,0,3.559,1,1374,2015-10-27T03:12:17.362Z
100,16.54,-16,-72,62.88,1010.52,0,3.559,1,1368,2015-10-27T03:11:30.073Z
100,16.49,-16,-71,63.08,1010.48,0,3.559,1,1363,2015-10-27T03:10:43.190Z
100,16.49,-17,-64,63.02,1010.39,0,3.559,1,1368,2015-10-27T03:09:33.932Z
100,16.64,-17,-65,62.62,1010.51,0,3.559,1,1372,2015-10-27T03:08:32.793Z
100,16.59,-20,-66,62.88,1010.38,0,3.559,1,1368,2015-10-27T03:07:29.961Z
100,16.78,-18,-65,62.07,1010.46,0,3.559,1,1369,2015-10-27T03:06:21.195Z
100,16.86,-16,-65,61.7,1010.51,0,3.559,1,1368,2015-10-27T03:05:21.796Z
100,16.96,-21,-68,61.13,1010.52,0,3.559,1,1361,2015-10-27T03:04:41.294Z
100,17.15,-23,-66,60.49,1010.59,0,3.559,1,1368,2015-10-27T03:03:24.879Z
100,17.5,-24,-68,59.23,1010.59,0,3.559,1,1363,2015-10-27T03:02:24.975Z
100,17.84,-20,-69,58.24,1010.69,0,3.559,1,1368,2015-10-27T03:01:45.242Z
100,17.81,-18,-68,58.33,1010.77,0,3.559,1,1371,2015-10-27T03:00:29.809Z
100,17.88,-16,-68,58.13,1010.65,0,3.559,1,1366,2015-10-27T02:59:26.706Z
100,17.98,-20,-66,57.72,1010.68,0,3.559,1,1360,2015-10-27T02:58:27.089Z
100,18.07,-4,-61,57.32,1010.73,0,3.559,1,1366,2015-10-27T02:57:41.335Z
100,18.21,-18,-66,57,1010.69,0,3.559,1,1368,2015-10-27T02:56:49.599Z
100,18.11,1,-66,57.35,1010.78,0,3.559,1,1371,2015-10-27T02:55:29.539Z
100,18.04,-16,-65,57.49,1010.76,0,3.559,1,1368,2015-10-27T02:54:31.056Z
100,17.82,-18,-66,58.1,1010.74,0,3.559,1,1361,2015-10-27T02:52:57.757Z
100,17.75,-20,-68,58.48,1010.82,0,3.559,1,1363,2015-10-27T02:51:48.252Z
100,17.6,-17,-66,59.14,1010.85,0,3.559,1,1368,2015-10-27T02:51:08.574Z
100,17.25,-25,-71,60.46,1010.82,0,3.559,1,1361,2015-10-27T02:49:34.276Z
100,16.82,-18,-66,61.76,1010.79,0,3.559,1,1369,2015-10-27T02:48:51.733Z
100,16.78,-13,-66,61.96,1010.81,0,3.559,1,1369,2015-10-27T02:47:54.018Z
100,16.68,-8,-65,62.13,1010.66,0,3.559,1,1369,2015-10-27T02:46:49.393Z
100,16.86,-16,-63,61.47,1010.77,0,3.559,1,1367,2015-10-27T02:45:59.853Z
100,16.92,-5,-64,61.3,1010.75,0,3.559,1,1369,2015-10-27T02:45:02.115Z
100,16.95,-4,-64,61.19,1010.77,0,3.559,1,1368,2015-10-27T02:43:37.798Z
100,16.99,-15,-66,60.98,1010.86,0,3.559,1,1372,2015-10-27T02:42:38.442Z
100,16.43,17,-49,63.16,1010.87,0,3.559,1,1368,2015-10-27T02:41:17.998Z
100,16.76,-20,-64,61.87,1010.86,0,3.559,1,1363,2015-10-27T02:41:39.460Z
100,16.23,-20,-71,63.88,1010.9,0,3.559,1,1364,2015-10-27T02:39:40.221Z
100,16.24,-9,-64,63.71,1011.04,0,3.559,1,1368,2015-10-27T02:37:58.881Z
100,16.2,3,-57,63.86,1010.93,0,3.559,1,1366,2015-10-27T02:38:41.459Z
100,16.35,15,-61,63.34,1011.09,0,3.559,1,1368,2015-10-27T02:36:41.896Z
100,16.38,-4,-64,63.22,1011.06,0,3.559,1,1372,2015-10-27T02:35:42.506Z
100,16.43,-7,-64,63.02,1011.03,0,3.559,1,1371,2015-10-27T02:34:44.597Z
100,16.47,-21,-66,62.9,1011.05,0,3.559,1,1367,2015-10-27T02:34:01.903Z
100,16.57,-16,-65,62.42,1011.08,0,3.559,1,1372,2015-10-27T02:32:46.644Z
100,16.86,-18,-68,61.47,1011.01,0,3.559,1,1364,2015-10-27T02:31:08.386Z
100,16.72,-16,-65,61.9,1011.17,0,3.559,1,1368,2015-10-27T02:31:45.263Z
100,16.91,-20,-69,61.27,1011.06,0,3.559,1,1361,2015-10-27T02:29:46.714Z
100,16.88,-4,-64,61.42,1011.03,0,3.559,1,1372,2015-10-27T02:28:47.380Z
100,17.09,-16,-66,60.78,1011.01,0,3.559,1,1368,2015-10-27T02:27:28.376Z
100,16.99,-8,-66,61.21,1011.06,0,3.559,1,1374,2015-10-27T02:27:48.115Z
100,17.76,-7,-63,58.36,1010.94,0,3.559,1,1368,2015-10-27T02:25:10.710Z
100,17.43,-18,-68,59.54,1011,0,3.559,1,1361,2015-10-27T02:25:49.586Z
100,18.18,-8,-63,56.97,1010.98,0,3.559,1,1364,2015-10-27T02:23:51.263Z
100,18.4,-8,-68,56.5,1010.94,0,3.559,1,1368,2015-10-27T02:22:52.170Z
100,18.36,-24,-68,56.65,1010.95,0,3.559,1,1364,2015-10-27T02:21:53.619Z
100,18.34,-23,-69,56.73,1010.97,0,3.559,1,1366,2015-10-27T02:20:53.969Z
100,18.32,-24,-68,56.82,1010.97,0,3.559,1,1358,2015-10-27T02:19:55.435Z
100,18.31,-15,-72,56.97,1011.05,0,3.559,1,1369,2015-10-27T02:18:55.774Z
100,18.42,-8,-66,56.76,1010.96,0,3.559,1,1363,2015-10-27T02:17:56.642Z
100,18.57,-23,-68,56.41,1011.03,0,3.559,1,1364,2015-10-27T02:16:58.139Z
100,18.56,-20,-71,56.18,1011,0,3.559,1,1363,2015-10-27T02:15:28.717Z
100,18.61,-25,-68,55.95,1011.03,0,3.559,1,1363,2015-10-27T02:15:58.854Z
100,18.54,-25,-72,56.24,1011.05,0,3.559,1,1372,2015-10-27T02:14:16.412Z
100,18.54,-23,-68,56.47,1011.17,0,3.559,1,1368,2015-10-27T02:13:02.461Z
100,18.32,-25,-66,57.2,1011.22,0,3.559,1,1367,2015-10-27T02:12:02.140Z
100,18.3,-23,-65,57.29,1011.15,0,3.559,1,1363,2015-10-27T02:10:23.033Z
100,18.2,-8,-63,57.43,1011.24,0,3.559,1,1368,2015-10-27T02:11:02.986Z
100,18.48,-4,-64,56.7,1011.15,0,3.559,1,1366,2015-10-27T02:09:04.710Z
100,18.46,-23,-66,56.73,1011.15,0,3.559,1,1359,2015-10-27T02:08:05.588Z
100,18.21,-16,-65,57.34,1011.13,0,3.559,1,1364,2015-10-27T02:06:35.869Z
100,18.34,-24,-66,57.14,1011.11,0,3.559,1,1368,2015-10-27T02:07:06.790Z
100,18.16,-20,-71,57.78,1011.17,17,3.559,1,1367,2015-10-27T02:04:39.761Z
100,18.12,-4,-65,57.75,1011.14,0,3.559,1,1372,2015-10-27T02:05:08.160Z
100,17.79,-20,-68,59.07,1011.16,17,3.559,1,1364,2015-10-27T02:03:41.429Z
100,17.35,-23,-65,60.72,1011.22,18,3.559,1,1360,2015-10-27T02:01:36.395Z
100,17.52,-21,-68,59.83,1011.16,18,3.559,1,1363,2015-10-27T02:02:11.542Z
100,17.39,-23,-66,60.55,1011.19,17,3.559,1,1374,2015-10-27T02:00:44.167Z
100,17.09,-15,-72,61.55,1011.24,17,3.559,1,1368,2015-10-27T01:59:27.698Z
100,16.94,-15,-66,62.13,1011.23,17,3.559,1,1368,2015-10-27T01:58:25.423Z
100,16.89,-15,-65,62.04,1011.21,17,3.559,1,1366,2015-10-27T01:57:13.990Z
100,16.77,-25,-66,62.56,1011.25,18,3.559,1,1368,2015-10-27T01:56:16.799Z
100,16.89,-26,-66,62.1,1011.31,17,3.559,1,1366,2015-10-27T01:55:16.139Z
100,16.79,-16,-65,62.71,1011.34,18,3.559,1,1376,2015-10-27T01:54:16.022Z
100,16.77,-16,-72,62.61,1011.39,17,3.559,1,1372,2015-10-27T01:53:20.360Z
100,16.85,-16,-68,62.25,1011.34,18,3.559,1,1372,2015-10-27T01:52:25.593Z
100,17.06,-16,-65,61.32,1011.27,17,3.559,1,1367,2015-10-27T01:51:25.634Z
100,17.1,-17,-68,61.13,1011.28,17,3.559,1,1361,2015-10-27T01:50:32.817Z
100,17.16,-16,-72,60.78,1011.33,17,3.559,1,1368,2015-10-27T01:49:19.666Z
100,17.17,-20,-68,60.84,1011.37,17,3.559,1,1363,2015-10-27T01:48:22.620Z
100,17.43,-20,-72,59.92,1011.51,17,3.559,1,1358,2015-10-27T01:47:27.588Z
100,17.64,-15,-72,58.88,1011.52,16,3.559,1,1368,2015-10-27T01:46:40.283Z
100,17.79,-20,-69,58.44,1011.47,14,3.559,1,1367,2015-10-27T01:45:37.363Z
100,18.15,-28,-69,57.32,1011.41,0,3.559,1,1368,2015-10-27T01:44:26.462Z
100,18.25,-17,-66,56.83,1011.45,0,3.559,1,1368,2015-10-27T01:43:39.838Z
100,18.17,-21,-68,57.4,1011.46,0,3.559,1,1355,2015-10-27T01:42:31.577Z
100,18.27,-4,-65,56.97,1011.45,0,3.559,1,1368,2015-10-27T01:41:29.175Z
100,18.54,-18,-66,56.04,1011.4,0,3.559,1,1364,2015-10-27T01:40:32.011Z
100,18.6,-23,-71,55.98,1011.31,0,3.559,1,1371,2015-10-27T01:39:33.829Z
100,18.65,-26,-72,55.55,1011.36,0,3.559,1,1367,2015-10-27T01:38:36.469Z
100,18.61,-18,-68,55.64,1011.41,0,3.559,1,1371,2015-10-27T01:37:46.891Z
100,18.35,-28,-71,56.48,1011.4,0,3.559,1,1360,2015-10-27T01:36:41.234Z
100,18.49,-16,-61,56.13,1011.47,0,3.559,1,1366,2015-10-27T01:35:37.752Z
100,18.56,-10,-66,55.9,1011.42,0,3.559,1,1372,2015-10-27T01:34:33.950Z
100,18.49,-29,-68,56.13,1011.42,0,3.559,1,1368,2015-10-27T01:33:35.208Z
100,18.34,-16,-65,56.59,1011.45,0,3.559,1,1376,2015-10-27T01:32:36.675Z
100,18.35,-31,-72,56.56,1011.59,0,3.559,1,1368,2015-10-27T01:31:35.655Z
100,18.49,-29,-71,56.1,1011.49,0,3.559,1,1372,2015-10-27T01:30:48.230Z
100,18.35,-29,-72,56.33,1011.55,0,3.559,1,1368,2015-10-27T01:29:38.209Z
100,18.34,-32,-72,56.59,1011.53,0,3.559,1,1363,2015-10-27T01:28:51.049Z
100,18.07,-25,-72,57.2,1011.45,0,3.559,1,1368,2015-10-27T01:27:40.154Z
100,18.12,-10,-65,57.2,1011.48,0,3.559,1,1364,2015-10-27T01:26:52.871Z
100,18.11,-20,-72,57.35,1011.36,0,3.559,1,1368,2015-10-27T01:26:01.236Z
100,17.99,-23,-73,57.84,1011.37,0,3.559,1,1368,2015-10-27T01:24:43.494Z
100,17.91,-10,-71,58.01,1011.38,0,3.559,1,1366,2015-10-27T01:24:07.717Z
100,17.73,-10,-65,58.68,1011.42,0,3.559,1,1371,2015-10-27T01:22:52.419Z
100,17.57,-25,-72,59.23,1011.41,0,3.559,1,1368,2015-10-27T01:22:13.996Z
100,17.11,-25,-72,60.55,1011.33,0,3.559,1,1368,2015-10-27T01:20:46.965Z
100,17.05,-25,-72,60.9,1011.35,0,3.559,1,1367,2015-10-27T01:19:51.850Z
100,17.02,-16,-72,60.96,1011.44,0,3.559,1,1369,2015-10-27T01:19:00.629Z
100,17.15,-29,-73,60.35,1011.36,0,3.559,1,1368,2015-10-27T01:17:55.305Z
100,17.11,-32,-69,60.66,1011.38,0,3.559,1,1361,2015-10-27T01:17:01.609Z
100,17.05,-20,-68,60.81,1011.36,0,3.559,1,1363,2015-10-27T01:15:55.106Z
100,17.13,-17,-66,60.58,1011.38,0,3.559,1,1361,2015-10-27T01:15:00.662Z
100,17.02,-16,-69,60.93,1011.34,0,3.559,1,1372,2015-10-27T01:13:54.380Z
100,17.2,-23,-72,60.26,1011.42,0,3.559,1,1363,2015-10-27T01:12:58.635Z
100,17.16,-16,-64,60.35,1011.38,0,3.559,1,1368,2015-10-27T01:12:12.034Z
100,17.39,-21,-71,59.57,1011.37,0,3.559,1,1366,2015-10-27T01:10:56.991Z
100,17.43,-31,-72,59.52,1011.37,0,3.554,1,1359,2015-10-27T01:10:16.562Z
100,17.52,-20,-71,59.11,1011.53,0,3.559,1,1366,2015-10-27T01:08:55.434Z
100,17.88,-15,-65,57.78,1011.47,0,3.559,1,1363,2015-10-27T01:07:57.642Z
100,18.22,-13,-68,56.8,1011.45,0,3.559,1,1371,2015-10-27T01:06:12.710Z
100,18.31,-23,-71,56.48,1011.47,0,3.554,1,1363,2015-10-27T01:06:57.468Z
100,18.25,-15,-66,56.62,1011.45,0,3.559,1,1366,2015-10-27T01:04:59.049Z
100,18.29,-7,-64,56.66,1011.25,0,3.559,1,1360,2015-10-27T01:04:00.505Z
100,18.24,-20,-63,56.8,1011.39,0,3.559,1,1369,2015-10-27T01:03:01.069Z
100,18.54,-24,-71,55.75,1011.4,0,3.559,1,1368,2015-10-27T01:02:01.463Z
100,18.61,-20,-69,55.5,1011.38,0,3.559,1,1366,2015-10-27T01:01:18.538Z
100,18.48,-15,-65,55.81,1011.38,0,3.559,1,1366,2015-10-27T01:00:10.885Z
100,18.62,-16,-69,55.38,1011.38,17,3.559,1,1363,2015-10-27T00:59:05.340Z
100,18.48,-20,-68,55.81,1011.43,17,3.559,1,1360,2015-10-27T00:58:04.628Z
100,18.47,-12,-68,55.9,1011.41,17,3.559,1,1366,2015-10-27T00:57:15.739Z
100,18.42,-13,-68,55.96,1011.4,18,3.559,1,1368,2015-10-27T00:56:06.845Z
100,18.39,-15,-72,56.11,1011.35,17,3.559,1,1368,2015-10-27T00:55:07.872Z
100,18.34,-20,-68,56.33,1011.44,18,3.559,1,1363,2015-10-27T00:53:38.690Z
100,18.4,-25,-66,56.11,1011.38,18,3.559,1,1372,2015-10-27T00:54:12.032Z
100,18.48,-25,-72,55.87,1011.38,18,3.559,1,1363,2015-10-27T00:52:26.154Z
100,18.18,-10,-69,56.88,1011.51,18,3.559,1,1369,2015-10-27T00:51:12.023Z
100,18.3,-25,-72,56.31,1011.44,18,3.559,1,1367,2015-10-27T00:50:25.346Z
100,18.07,-13,-68,57.2,1011.45,17,3.559,1,1372,2015-10-27T00:49:26.478Z
100,17.75,-17,-66,58.3,1011.52,17,3.559,1,1368,2015-10-27T00:48:16.766Z
100,17.39,-16,-68,59.71,1011.45,17,3.559,1,1363,2015-10-27T00:47:15.001Z
100,17.3,-18,-72,59.83,1011.46,17,3.559,1,1359,2015-10-27T00:46:15.594Z
100,17.32,-26,-73,59.68,1011.45,17,3.559,1,1363,2015-10-27T00:45:16.920Z
100,17.39,-17,-65,59.37,1011.53,17,3.559,1,1368,2015-10-27T00:43:47.827Z
100,17.21,-15,-68,60.12,1011.47,18,3.559,1,1363,2015-10-27T00:44:17.465Z
100,17.43,-16,-68,59.14,1011.55,16,3.559,1,1367,2015-10-27T00:42:21.260Z
100,17.5,-8,-66,59,1011.52,17,3.559,1,1369,2015-10-27T00:41:41.902Z
100,17.61,-20,-66,58.39,1011.51,17,3.559,1,1367,2015-10-27T00:40:27.519Z
100,17.55,-20,-72,58.68,1011.56,17,3.559,1,1359,2015-10-27T00:39:42.439Z
100,17.43,-18,-65,59.29,1011.55,17,3.559,1,1371,2015-10-27T00:38:22.105Z
100,17.52,-20,-69,58.97,1011.54,17,3.559,1,1366,2015-10-27T00:37:41.871Z
100,17.52,-18,-64,58.97,1011.52,17,3.559,1,1367,2015-10-27T00:36:24.530Z
100,17.51,-17,-72,58.97,1011.47,17,3.559,1,1366,2015-10-27T00:35:24.805Z
100,17.43,-23,-68,59.34,1011.51,17,3.559,1,1368,2015-10-27T00:34:36.619Z
100,17.68,-17,-72,58.51,1011.54,17,3.559,1,1367,2015-10-27T00:33:32.798Z
100,17.88,-13,-68,57.95,1011.56,17,3.559,1,1368,2015-10-27T00:32:27.938Z
100,17.97,-18,-68,57.61,1011.53,17,3.559,1,1366,2015-10-27T00:31:28.768Z
100,18.05,-32,-69,57.38,1011.51,17,3.559,1,1359,2015-10-27T00:30:31.201Z
100,18.35,-25,-69,56.19,1011.61,17,3.559,1,1366,2015-10-27T00:29:29.466Z
100,18.55,-16,-68,55.75,1011.6,17,3.559,1,1359,2015-10-27T00:28:31.902Z
100,18.71,-15,-71,55.14,1011.49,17,3.559,1,1367,2015-10-27T00:27:32.868Z
100,19.05,-16,-66,54.01,1011.51,17,3.559,1,1363,2015-10-27T00:26:32.382Z
100,19.05,-25,-71,53.86,1011.52,16,3.559,1,1363,2015-10-27T00:25:35.382Z
100,19.08,-36,-72,53.81,1011.49,0,3.559,1,1372,2015-10-27T00:24:35.029Z
100,19.06,-25,-71,53.84,1011.51,0,3.559,1,1369,2015-10-27T00:23:37.571Z
100,19.03,-25,-73,53.98,1011.41,0,3.559,1,1364,2015-10-27T00:22:39.721Z
100,19.02,-16,-66,54.12,1011.51,0,3.559,1,1363,2015-10-27T00:21:37.609Z
100,19.04,-31,-74,53.95,1011.5,0,3.559,1,1368,2015-10-27T00:20:41.784Z
100,19.04,-23,-71,53.81,1011.55,0,3.559,1,1367,2015-10-27T00:19:44.303Z
100,19.14,-29,-72,53.29,1011.48,0,3.559,1,1368,2015-10-27T00:18:40.795Z
100,19.08,-18,-68,53.6,1011.5,0,3.559,1,1359,2015-10-27T00:17:50.964Z
100,19.18,-29,-66,53.31,1011.37,0,3.559,1,1368,2015-10-27T00:16:42.938Z
100,19.18,-25,-65,53.34,1011.54,17,3.559,1,1366,2015-10-27T00:15:44.875Z
100,19.12,-34,-68,53.52,1011.56,17,3.559,1,1367,2015-10-27T00:14:55.337Z
100,19.09,-25,-71,53.52,1011.53,18,3.559,1,1359,2015-10-27T00:13:46.706Z
100,19.08,-29,-72,53.81,1011.52,18,3.559,1,1363,2015-10-27T00:12:47.404Z
100,18.99,-25,-68,53.95,1011.56,17,3.559,1,1366,2015-10-27T00:11:48.189Z
100,19.02,-24,-74,54.04,1011.44,17,3.559,1,1368,2015-10-27T00:10:49.236Z
100,18.99,-16,-65,53.93,1011.49,18,3.559,1,1360,2015-10-27T00:09:50.277Z
100,18.94,-25,-73,53.93,1011.54,17,3.559,1,1366,2015-10-27T00:08:51.600Z
100,18.98,-17,-68,53.98,1011.54,18,3.559,1,1366,2015-10-27T00:07:53.244Z
100,18.85,-16,-72,54.27,1011.43,18,3.559,1,1360,2015-10-27T00:06:53.429Z
100,18.76,-25,-68,54.54,1011.35,17,3.559,1,1366,2015-10-27T00:05:58.494Z
100,18.73,-16,-68,54.4,1011.47,17,3.559,1,1360,2015-10-27T00:04:56.886Z
100,18.56,-16,-71,55.06,1011.49,17,3.559,1,1374,2015-10-27T00:03:56.656Z
100,18.39,-13,-68,55.59,1011.58,17,3.559,1,1368,2015-10-27T00:02:58.210Z
100,18.18,-20,-69,56.66,1011.52,17,3.559,1,1364,2015-10-27T00:02:17.083Z
100,18.01,-25,-68,57.2,1011.57,17,3.559,1,1363,2015-10-27T00:00:59.565Z
100,17.74,-23,-68,57.96,1011.6,17,3.559,1,1366,2015-10-27T00:00:00.242Z
100,17.71,-12,-68,58.07,1011.52,18,3.559,1,1367,2015-10-26T23:59:01.260Z
100,17.79,-20,-68,57.9,1011.61,17,3.559,1,1366,2015-10-26T23:58:02.013Z
100,17.88,-13,-71,57.27,1011.59,15,3.559,1,1372,2015-10-26T23:57:02.940Z
100,17.85,-23,-65,57.44,1011.62,0,3.559,1,1368,2015-10-26T23:56:04.204Z
100,17.65,-10,-64,58.28,1011.7,0,3.559,1,1368,2015-10-26T23:55:05.510Z
100,17.6,-13,-72,58.51,1011.61,0,3.559,1,1368,2015-10-26T23:54:06.112Z
100,17.71,-16,-68,58.02,1011.68,0,3.559,1,1363,2015-10-26T23:53:06.826Z
100,17.66,-20,-68,58.28,1011.74,0,3.559,1,1366,2015-10-26T23:52:07.422Z
100,17.73,-23,-68,58.07,1011.68,0,3.559,1,1363,2015-10-26T23:51:09.753Z
100,17.91,-23,-69,57.38,1011.65,0,3.559,1,1368,2015-10-26T23:50:09.956Z
100,17.88,-10,-66,57.61,1011.7,0,3.559,1,1367,2015-10-26T23:49:10.101Z
100,18.28,-16,-69,56.22,1011.77,0,3.559,1,1368,2015-10-26T23:48:12.386Z
100,18.49,-29,-69,55.72,1011.8,0,3.559,1,1368,2015-10-26T23:47:13.003Z
100,18.65,-25,-71,55.2,1011.67,0,3.559,1,1366,2015-10-26T23:46:12.895Z
100,18.64,-31,-69,55.09,1011.71,18,3.559,1,1361,2015-10-26T23:45:16.473Z
100,18.59,-26,-68,55.35,1011.79,17,3.559,1,1367,2015-10-26T23:44:14.798Z
100,18.49,-23,-68,55.69,1011.74,18,3.559,1,1363,2015-10-26T23:43:16.414Z
100,18.54,-13,-68,55.55,1011.83,17,3.559,1,1366,2015-10-26T23:42:16.876Z
100,18.73,-26,-72,54.82,1011.77,17,3.559,1,1368,2015-10-26T23:41:26.335Z
100,19.02,-29,-71,53.95,1011.83,17,3.559,1,1372,2015-10-26T23:40:19.581Z
100,19.06,-18,-72,53.81,1011.77,18,3.559,1,1363,2015-10-26T23:39:19.725Z
100,19.13,-13,-72,53.6,1011.83,17,3.559,1,1364,2015-10-26T23:38:20.774Z
100,19.09,-17,-66,53.63,1011.76,17,3.559,1,1360,2015-10-26T23:37:23.680Z
100,19.13,-18,-68,53.55,1011.78,18,3.559,1,1368,2015-10-26T23:36:24.267Z
100,19.23,-25,-72,53.25,1011.69,18,3.559,1,1363,2015-10-26T23:35:38.327Z
100,19.21,-23,-72,53.22,1011.74,17,3.559,1,1361,2015-10-26T23:34:30.245Z
100,19.17,-20,-68,53.6,1011.77,18,3.559,1,1363,2015-10-26T23:33:26.381Z
100,19.15,-25,-69,53.26,1011.79,17,3.559,1,1368,2015-10-26T23:32:27.137Z
100,19.03,-24,-72,53.66,1011.84,17,3.559,1,1366,2015-10-26T23:31:28.168Z
100,18.88,-29,-68,54.42,1011.65,17,3.559,1,1372,2015-10-26T23:30:36.182Z
100,18.98,-16,-68,53.87,1011.8,18,3.559,1,1367,2015-10-26T23:29:30.112Z
100,19.15,-20,-65,53.73,1011.76,18,3.559,1,1361,2015-10-26T23:28:42.384Z
100,19.1,-21,-72,53.75,1011.81,17,3.559,1,1366,2015-10-26T23:27:32.212Z
100,19.02,-25,-72,54.04,1011.81,18,3.559,1,1363,2015-10-26T23:26:39.609Z
100,18.92,-25,-71,54.42,1011.8,17,3.559,1,1367,2015-10-26T23:25:36.405Z
100,18.93,-24,-68,53.98,1011.77,17,3.559,1,1363,2015-10-26T23:24:35.389Z
100,18.87,-28,-72,54.5,1011.8,18,3.559,1,1363,2015-10-26T23:23:39.934Z
100,19.01,-28,-72,54.24,1011.76,18,3.559,1,1372,2015-10-26T23:22:39.380Z
100,18.87,-29,-65,54.42,1011.7,18,3.559,1,1368,2015-10-26T23:21:39.582Z
100,18.71,-18,-72,55.03,1011.71,17,3.559,1,1372,2015-10-26T23:20:43.740Z
100,18.65,-29,-66,55.37,1011.62,18,3.559,1,1368,2015-10-26T23:19:40.591Z
100,18.43,-16,-68,55.64,1011.7,18,3.559,1,1371,2015-10-26T23:18:41.275Z
100,18.31,-16,-68,56.45,1011.65,18,3.559,1,1372,2015-10-26T23:17:45.850Z
100,17.89,-16,-71,57.72,1011.65,18,3.559,1,1369,2015-10-26T23:16:44.418Z
100,17.69,-25,-69,58.02,1011.69,17,3.559,1,1371,2015-10-26T23:15:53.000Z
100,17.82,-29,-72,57.78,1011.72,17,3.559,1,1372,2015-10-26T23:14:45.141Z
100,17.88,-25,-73,57.36,1011.64,18,3.559,1,1367,2015-10-26T23:13:45.933Z
100,17.73,-15,-68,58.07,1011.62,17,3.559,1,1368,2015-10-26T23:12:46.803Z
100,17.75,-16,-68,58.02,1011.68,17,3.559,1,1368,2015-10-26T23:12:05.597Z
100,17.84,-31,-71,57.49,1011.6,18,3.559,1,1359,2015-10-26T23:10:52.898Z
100,17.94,-16,-71,57.27,1011.58,18,3.559,1,1372,2015-10-26T23:09:50.383Z
100,17.88,-25,-72,57.21,1011.68,17,3.559,1,1367,2015-10-26T23:08:51.296Z
100,17.73,-13,-69,58.07,1011.59,17,3.559,1,1372,2015-10-26T23:07:58.009Z
100,17.95,-16,-68,57.27,1011.61,17,3.559,1,1371,2015-10-26T23:06:53.082Z
100,18.07,-15,-66,56.52,1011.62,17,3.559,1,1372,2015-10-26T23:05:53.633Z
100,18.05,-29,-72,56.89,1011.62,18,3.559,1,1367,2015-10-26T23:04:54.939Z
100,18.18,-29,-72,56.2,1011.61,17,3.559,1,1374,2015-10-26T23:03:56.288Z
100,18.47,-29,-72,55.53,1011.57,17,3.559,1,1372,2015-10-26T23:02:57.168Z
100,18.93,-25,-71,54.1,1011.54,17,3.559,1,1367,2015-10-26T23:01:57.660Z
100,19.07,-32,-65,53.7,1011.67,18,3.559,1,1368,2015-10-26T23:01:02.260Z
100,19.16,-29,-69,53.47,1011.59,18,3.559,1,1363,2015-10-26T23:00:00.094Z
100,19.32,-32,-72,52.7,1011.59,18,3.559,1,1372,2015-10-26T22:59:00.125Z
100,19.22,-31,-72,53.2,1011.61,18,3.559,1,1367,2015-10-26T22:58:01.437Z
100,19.43,-24,-66,52.5,1011.58,18,3.559,1,1368,2015-10-26T22:57:02.293Z
100,19.46,-20,-69,52.04,1011.59,20,3.559,1,1368,2015-10-26T22:56:03.841Z
100,19.43,-32,-77,52.32,1011.55,20,3.559,1,1368,2015-10-26T22:55:04.664Z
100,19.49,-26,-65,52.06,1011.46,20,3.559,1,1366,2015-10-26T22:54:06.005Z
100,19.67,-24,-68,51.54,1011.54,20,3.559,1,1375,2015-10-26T22:53:08.021Z
100,19.57,-33,-71,51.8,1011.53,21,3.559,1,1366,2015-10-26T22:52:07.951Z
100,19.72,-33,-72,51.62,1011.43,21,3.559,1,1368,2015-10-26T22:51:09.576Z
100,19.59,-33,-66,51.68,1011.48,20,3.559,1,1367,2015-10-26T22:50:10.546Z
100,19.67,-34,-72,51.6,1011.53,20,3.559,1,1363,2015-10-26T22:49:12.000Z
100,19.73,-25,-71,51.3,1011.51,21,3.559,1,1375,2015-10-26T22:48:12.653Z
100,19.78,-20,-69,51.22,1011.54,21,3.559,1,1368,2015-10-26T22:47:14.561Z
100,19.7,-24,-68,51.36,1011.56,21,3.559,1,1372,2015-10-26T22:46:15.739Z
100,19.87,-23,-71,51.21,1011.55,20,3.559,1,1368,2015-10-26T22:45:16.724Z
100,19.87,-20,-68,50.71,1011.54,20,3.559,1,1369,2015-10-26T22:44:17.715Z
100,19.87,-33,-74,50.84,1011.63,20,3.559,1,1368,2015-10-26T22:43:18.814Z
100,19.7,-32,-72,51.36,1011.61,21,3.559,1,1374,2015-10-26T22:42:19.748Z
100,19.73,-23,-71,51.54,1011.59,20,3.559,1,1372,2015-10-26T22:41:22.788Z
100,19.75,-34,-72,51.3,1011.54,20,3.559,1,1372,2015-10-26T22:40:23.758Z
100,19.8,-29,-68,51.25,1011.57,21,3.559,1,1372,2015-10-26T22:39:23.816Z
100,19.75,-29,-71,51.65,1011.51,20,3.559,1,1368,2015-10-26T22:38:24.707Z
100,19.77,-29,-65,51.47,1011.52,20,3.559,1,1363,2015-10-26T22:37:26.079Z
100,19.82,-31,-66,51.13,1011.53,20,3.559,1,1363,2015-10-26T22:36:27.773Z
100,19.79,-32,-68,51.33,1011.55,21,3.559,1,1368,2015-10-26T22:35:28.582Z
100,19.86,-29,-72,51.1,1011.54,21,3.559,1,1368,2015-10-26T22:34:29.571Z
100,19.81,-24,-74,50.96,1011.57,21,3.559,1,1364,2015-10-26T22:33:31.410Z
100,19.73,-29,-69,51.44,1011.54,21,3.559,1,1366,2015-10-26T22:32:33.098Z
100,19.84,-25,-69,50.93,1011.56,21,3.559,1,1368,2015-10-26T22:31:34.267Z
100,19.83,-20,-71,51.13,1011.45,21,3.559,1,1372,2015-10-26T22:30:35.012Z
100,19.91,-16,-71,50.54,1011.48,20,3.559,1,1364,2015-10-26T22:29:35.903Z
100,19.89,-26,-69,50.6,1011.48,21,3.559,1,1368,2015-10-26T22:28:36.134Z
100,19.91,-29,-68,50.86,1011.42,20,3.559,1,1363,2015-10-26T22:27:37.316Z
100,19.99,-34,-69,50.54,1011.41,21,3.559,1,1366,2015-10-26T22:26:38.830Z
0,20.01,-25,-71,50.34,1011.38,20,3.559,1,1375,2015-10-26T22:25:47.949Z
0,20.01,-25,-72,50.02,1011.42,21,3.559,1,1376,2015-10-26T22:24:40.868Z
100,19.98,-32,-71,50.69,1011.32,20,3.559,1,1363,2015-10-26T22:23:59.054Z
100,19.96,-29,-71,50.57,1011.27,21,3.559,1,1368,2015-10-26T22:22:43.451Z
100,19.94,-20,-68,50.34,1011.28,21,3.559,1,1367,2015-10-26T22:21:44.364Z
100,19.9,-17,-72,50.71,1011.34,20,3.559,1,1368,2015-10-26T22:20:46.112Z
100,19.79,-31,-68,51.22,1011.28,20,3.559,1,1368,2015-10-26T22:19:46.651Z
100,19.79,-26,-68,51.04,1011.31,20,3.559,1,1371,2015-10-26T22:18:47.985Z
100,19.78,-29,-72,51.22,1011.31,20,3.559,1,1367,2015-10-26T22:17:49.125Z
100,19.64,-29,-69,51.83,1011.22,21,3.559,1,1368,2015-10-26T22:16:58.228Z
100,19.69,-25,-68,51.76,1011.18,21,3.559,1,1368,2015-10-26T22:15:51.755Z
100,19.73,-23,-71,51.42,1011.16,21,3.559,1,1359,2015-10-26T22:14:54.204Z
100,19.75,-20,-66,51.47,1011.22,20,3.559,1,1371,2015-10-26T22:13:53.557Z
100,19.79,-29,-68,51.42,1011.26,20,3.559,1,1363,2015-10-26T22:12:54.716Z
100,19.82,-29,-72,51.33,1011.22,21,3.559,1,1372,2015-10-26T22:11:57.899Z
100,19.78,-18,-71,51.47,1011.15,20,3.559,1,1364,2015-10-26T22:10:59.624Z
100,19.72,-34,-72,51.73,1011.29,20,3.559,1,1368,2015-10-26T22:09:58.586Z
100,19.77,-29,-69,51.8,1011.24,20,3.559,1,1366,2015-10-26T22:09:11.915Z
100,19.79,-21,-72,51.59,1011.29,20,3.559,1,1366,2015-10-26T22:08:18.127Z
100,19.86,-24,-68,51.36,1011.21,21,3.559,1,1361,2015-10-26T22:07:01.931Z
100,19.83,-20,-72,51.15,1011.22,20,3.559,1,1366,2015-10-26T22:06:12.001Z
100,19.8,-21,-71,51.33,1011.17,21,3.559,1,1367,2015-10-26T22:05:05.114Z
100,19.86,-20,-64,51.36,1011.2,20,3.559,1,1361,2015-10-26T22:04:06.616Z
0,20.04,-25,-68,50.8,1011.19,21,3.559,1,1366,2015-10-26T22:03:07.111Z
100,19.99,-32,-72,50.69,1011.2,21,3.559,1,1360,2015-10-26T22:02:08.808Z
0,20.02,-23,-66,50.69,1011.16,21,3.559,1,1368,2015-10-26T22:01:09.636Z
0,20.05,-26,-73,50.22,1011.22,21,3.559,1,1368,2015-10-26T22:00:13.620Z
0,20.07,-29,-71,50.42,1011.18,21,3.559,1,1372,2015-10-26T21:59:12.542Z
0,20.01,-31,-72,50.77,1011.13,21,3.559,1,1368,2015-10-26T21:58:14.508Z
0,20.07,-26,-68,50.91,1011.15,20,3.559,1,1368,2015-10-26T21:57:21.677Z
0,20.12,-29,-72,50.68,1011.15,20,3.559,1,1368,2015-10-26T21:56:21.820Z
0,20.09,-25,-74,50.65,1011.16,20,3.559,1,1372,2015-10-26T21:55:16.608Z
0,20.1,-33,-74,50.28,1011.13,21,3.559,1,1366,2015-10-26T21:54:17.871Z
0,20.07,-26,-72,50.54,1011.18,21,3.559,1,1361,2015-10-26T21:53:24.172Z
0,20.09,-29,-72,50.51,1011.21,20,3.559,1,1368,2015-10-26T21:52:32.520Z
0,20.1,-28,-68,50.25,1011.16,21,3.559,1,1368,2015-10-26T21:51:25.854Z
0,20.02,-25,-72,51.03,1011.22,21,3.559,1,1368,2015-10-26T21:50:29.245Z
100,19.98,-16,-68,50.98,1011.29,20,3.559,1,1363,2015-10-26T21:49:31.627Z
100,19.96,-25,-72,51.12,1011.32,21,3.559,1,1368,2015-10-26T21:48:25.229Z
100,19.96,-25,-69,51.09,1011.3,21,3.559,1,1368,2015-10-26T21:47:26.616Z
100,19.99,-23,-68,51.38,1011.25,21,3.559,1,1369,2015-10-26T21:46:27.626Z
100,19.97,-28,-68,51.21,1011.26,21,3.559,1,1367,2015-10-26T21:45:33.108Z
0,20.07,-18,-64,51.35,1011.24,20,3.559,1,1360,2015-10-26T21:44:39.406Z
0,20.08,-25,-71,51.17,1011.22,21,3.559,1,1368,2015-10-26T21:43:32.319Z
0,20.07,-34,-72,51.02,1011.27,20,3.559,1,1368,2015-10-26T21:42:33.736Z
100,19.99,-24,-72,51.35,1011.28,20,3.559,1,1363,2015-10-26T21:41:35.069Z
0,20.04,-25,-66,51.37,1011.25,21,3.559,1,1364,2015-10-26T21:40:49.789Z
0,20.12,-20,-72,51.11,1011.2,21,3.559,1,1368,2015-10-26T21:39:36.096Z
0,20.14,-26,-72,51.17,1011.27,20,3.559,1,1368,2015-10-26T21:38:37.344Z
0,20.08,-31,-72,51.02,1011.29,21,3.559,1,1363,2015-10-26T21:37:38.567Z
0,20.04,-33,-69,51.37,1011.32,21,3.559,1,1366,2015-10-26T21:36:39.793Z
0,20.05,-20,-69,51.14,1011.28,21,3.559,1,1368,2015-10-26T21:35:41.030Z
0,20.17,-29,-65,50.8,1011.26,20,3.559,1,1368,2015-10-26T21:34:42.265Z
0,20.08,-20,-71,50.88,1011.18,21,3.559,1,1374,2015-10-26T21:33:57.962Z
0,20.09,-29,-68,50.62,1011.19,21,3.559,1,1366,2015-10-26T21:32:44.716Z
0,20.06,-24,-68,51.25,1011.27,20,3.559,1,1372,2015-10-26T21:31:45.896Z
0,20.05,-24,-71,51.66,1011.19,21,3.559,1,1372,2015-10-26T21:30:52.436Z
0,20.07,-29,-68,51.49,1011.23,21,3.559,1,1366,2015-10-26T21:29:50.481Z
0,20.14,-25,-68,51.14,1011.2,20,3.559,1,1369,2015-10-26T21:28:49.742Z
0,20.11,-18,-72,51.37,1011.22,20,3.559,1,1367,2015-10-26T21:27:50.797Z
0,20.13,-32,-68,50.88,1011.21,20,3.559,1,1372,2015-10-26T21:26:52.183Z
0,20.09,-20,-68,51.23,1011.18,20,3.559,1,1372,2015-10-26T21:25:53.441Z
100,19.99,-20,-71,51.18,1011.16,20,3.559,1,1368,2015-10-26T21:24:54.515Z
0,20.09,-26,-71,50.8,1011.1,21,3.559,1,1368,2015-10-26T21:23:56.786Z
0,20.05,-21,-66,51.09,1011.23,20,3.559,1,1368,2015-10-26T21:23:01.821Z
0,20.11,-24,-72,51.51,1011.09,21,3.559,1,1376,2015-10-26T21:21:58.491Z
0,20.08,-21,-68,51.23,1011.24,21,3.559,1,1374,2015-10-26T21:20:59.681Z
0,20.11,-23,-71,51.2,1011.26,21,3.559,1,1377,2015-10-26T21:20:06.514Z
0,20.07,-29,-68,51.6,1011.13,21,3.559,1,1368,2015-10-26T21:19:02.077Z
0,20.06,-25,-73,51.63,1011.19,20,3.559,1,1368,2015-10-26T21:18:03.550Z
0,20.05,-29,-68,51.14,1011.1,20,3.559,1,1367,2015-10-26T21:17:06.110Z
0,20.16,-32,-66,51.06,1011.05,20,3.559,1,1363,2015-10-26T21:16:05.870Z
0,20.17,-23,-69,51.02,1011.07,21,3.559,1,1368,2015-10-26T21:15:07.664Z
100,20.02,-32,-66,51.73,1011.1,21,3.559,1,1368,2015-10-26T21:14:08.102Z
0,20.19,-31,-66,51.23,1011.15,21,3.559,1,1363,2015-10-26T21:13:09.684Z
0,20.2,-32,-68,51.14,1011.09,21,3.559,1,1360,2015-10-26T21:12:11.662Z
0,20.2,-29,-68,50.7,1011.14,21,3.559,1,1366,2015-10-26T21:11:11.950Z
0,20.2,-29,-72,51.11,1011.17,21,3.559,1,1363,2015-10-26T21:10:14.147Z
0,20.21,-29,-72,50.58,1011.13,20,3.559,1,1367,2015-10-26T21:08:36.079Z
0,20.21,-29,-68,50.96,1011.17,21,3.559,1,1363,2015-10-26T21:09:14.364Z
0,20.21,-21,-72,50.73,1011.18,21,3.559,1,1368,2015-10-26T21:07:30.744Z
0,20.2,-20,-68,50.73,1011.02,21,3.559,1,1368,2015-10-26T21:06:27.144Z
0,20.16,-33,-66,50.99,1011.02,21,3.559,1,1363,2015-10-26T21:04:42.287Z
0,20.2,-31,-68,51.25,1011.13,21,3.559,1,1368,2015-10-26T21:05:19.327Z
0,20.2,-25,-65,51.06,1011.03,21,3.559,1,1372,2015-10-26T21:02:41.716Z
0,20.2,-25,-68,50.8,1011.18,21,3.559,1,1374,2015-10-26T21:03:22.412Z
0,20.1,-20,-71,51.23,1011.13,21,3.559,1,1372,2015-10-26T21:01:24.532Z
0,20.1,-25,-69,51.2,1011.06,20,3.559,1,1368,2015-10-26T21:00:26.288Z
0,20.06,-32,-71,51.46,1011.09,21,3.559,1,1367,2015-10-26T20:59:39.402Z
0,20.11,-20,-72,51.72,1011.07,20,3.559,1,1366,2015-10-26T20:58:29.710Z
0,20.12,-20,-65,51.92,1011.08,20,3.559,1,1368,2015-10-26T20:56:52.543Z
0,20.19,-29,-66,51.75,1011.06,22,3.559,1,1368,2015-10-26T20:57:34.026Z
0,20.2,-18,-68,51.02,1011.1,21,3.559,1,1368,2015-10-26T20:55:54.343Z
0,20.2,-20,-68,50.7,1011.04,21,3.559,1,1368,2015-10-26T20:54:43.642Z
0,20.2,-18,-72,50.62,1011.06,21,3.559,1,1368,2015-10-26T20:53:34.291Z
0,20.2,-28,-71,50.77,1011.07,21,3.559,1,1363,2015-10-26T20:52:50.282Z
0,20.2,-31,-72,51.02,1011.04,21,3.559,1,1363,2015-10-26T20:51:36.458Z
0,20.2,-29,-71,50.99,1010.98,20,3.559,1,1363,2015-10-26T20:50:51.684Z
0,20.2,-31,-71,51.11,1010.97,21,3.559,1,1364,2015-10-26T20:49:40.291Z
0,20.2,-25,-72,51.37,1011.08,21,3.559,1,1366,2015-10-26T20:48:48.363Z
0,20.2,-23,-68,51.14,1011.01,21,3.559,1,1374,2015-10-26T20:48:07.367Z
0,20.2,-31,-69,51.11,1010.97,21,3.559,1,1363,2015-10-26T20:46:50.559Z
0,20.2,-21,-66,51.31,1010.98,21,3.559,1,1363,2015-10-26T20:45:44.654Z
0,20.21,-21,-71,50.67,1010.99,21,3.559,1,1368,2015-10-26T20:45:06.354Z
0,20.21,-25,-66,51.1,1010.96,21,3.559,1,1372,2015-10-26T20:43:59.213Z
0,20.2,-25,-72,50.91,1011.03,20,3.559,1,1364,2015-10-26T20:43:04.445Z
0,20.2,-33,-72,51.2,1010.85,20,3.559,1,1363,2015-10-26T20:42:06.367Z
0,20.14,-25,-66,51.66,1011.01,21,3.559,1,1372,2015-10-26T20:41:07.669Z
0,20.04,-25,-68,50.94,1010.99,20,3.559,1,1369,2015-10-26T20:40:00.091Z
100,19.93,-29,-69,52.16,1011.01,20,3.559,1,1359,2015-10-26T20:38:52.392Z
0,20.12,-29,-72,51.46,1010.99,21,3.559,1,1363,2015-10-26T20:38:04.699Z
0,20.06,-25,-72,51.54,1011.03,21,3.559,1,1371,2015-10-26T20:36:54.785Z
0,20.09,-20,-66,51.66,1011,20,3.559,1,1366,2015-10-26T20:35:56.561Z
0,20.08,-28,-72,51.54,1010.95,20,3.559,1,1366,2015-10-26T20:35:13.995Z
0,20.08,-26,-73,51.4,1011.01,21,3.559,1,1368,2015-10-26T20:34:13.304Z
0,20.2,-32,-74,51.23,1010.89,21,3.559,1,1366,2015-10-26T20:33:18.907Z
0,20.2,-26,-72,51.02,1010.93,21,3.559,1,1368,2015-10-26T20:32:18.772Z
0,20.11,-33,-72,50.99,1010.94,20,3.559,1,1367,2015-10-26T20:31:03.387Z
0,20.08,-24,-72,51.28,1010.98,21,3.559,1,1368,2015-10-26T20:30:20.491Z
100,20.03,-20,-68,51.63,1010.94,21,3.559,1,1375,2015-10-26T20:29:43.744Z
0,20.2,-39,-72,51.06,1010.9,20,3.559,1,1368,2015-10-26T20:28:25.267Z
0,20.26,-32,-68,50.35,1010.98,21,3.559,1,1367,2015-10-26T20:27:07.485Z
0,20.34,-32,-69,50.44,1010.9,21,3.559,1,1361,2015-10-26T20:26:07.960Z
0,20.39,-23,-69,50.21,1010.93,21,3.559,1,1363,2015-10-26T20:25:19.944Z
0,20.38,-36,-72,50.44,1010.93,20,3.559,1,1368,2015-10-26T20:24:29.896Z
0,20.42,-20,-72,49.85,1010.88,21,3.559,1,1368,2015-10-26T20:23:32.801Z
0,20.46,-31,-71,49.55,1010.91,20,3.559,1,1363,2015-10-26T20:22:35.572Z
0,20.43,-25,-71,50.25,1010.89,21,3.559,1,1367,2015-10-26T20:21:15.225Z
0,20.5,-20,-68,49.85,1010.95,20,3.559,1,1366,2015-10-26T20:20:15.903Z
0,20.5,-29,-72,49.85,1010.92,20,3.559,1,1359,2015-10-26T20:19:19.142Z
0,20.46,-29,-68,49.65,1010.85,21,3.559,1,1360,2015-10-26T20:18:36.879Z
0,20.4,-36,-74,49.35,1010.9,21,3.559,1,1372,2015-10-26T20:17:31.434Z
0,20.28,-39,-72,50.06,1010.98,21,3.559,1,1372,2015-10-26T20:16:49.377Z
0,20.31,-24,-68,50.56,1010.93,21,3.559,1,1366,2015-10-26T20:15:53.597Z
0,20.37,-20,-68,49.93,1010.97,21,3.559,1,1372,2015-10-26T20:14:35.199Z
0,20.42,-25,-71,49.82,1010.91,21,3.559,1,1368,2015-10-26T20:13:36.536Z
0,20.41,-25,-68,49.25,1011.04,20,3.559,1,1372,2015-10-26T20:12:52.203Z
0,20.43,-32,-71,49.72,1010.98,21,3.559,1,1367,2015-10-26T20:11:44.234Z
0,20.42,-34,-69,49.82,1010.88,22,3.559,1,1368,2015-10-26T20:10:53.170Z
0,20.42,-26,-71,49.85,1011.07,21,3.559,1,1367,2015-10-26T20:09:43.374Z
0,20.46,-25,-68,49.85,1010.93,21,3.559,1,1372,2015-10-26T20:07:50.167Z
0,20.38,-34,-72,50.58,1010.96,20,3.559,1,1363,2015-10-26T20:06:48.782Z
0,20.44,-32,-72,50.23,1011.05,21,3.559,1,1366,2015-10-26T20:05:37.505Z
0,20.5,-36,-72,50.02,1011,20,3.559,1,1372,2015-10-26T20:04:55.008Z
0,20.46,-25,-72,49.32,1011.01,21,3.559,1,1364,2015-10-26T20:04:08.955Z
0,20.44,-26,-68,49.78,1011.04,20,3.559,1,1368,2015-10-26T20:02:52.665Z
0,20.28,-32,-68,49.96,1011,21,3.559,1,1372,2015-10-26T20:01:04.391Z
0,20.35,-23,-72,50.12,1010.94,21,3.559,1,1372,2015-10-26T20:01:45.471Z
0,20.31,-31,-72,50.12,1011.01,21,3.559,1,1368,2015-10-26T19:59:52.296Z
0,20.22,-23,-72,50.29,1011.06,18,3.559,1,1372,2015-10-26T19:59:15.381Z
0,20.33,-31,-68,50.41,1011.01,17,3.559,1,1363,2015-10-26T19:57:46.183Z
0,20.33,-32,-68,50.32,1011.03,18,3.559,1,1366,2015-10-26T19:56:13.107Z
0,20.4,-29,-72,50.35,1011,18,3.559,1,1367,2015-10-26T19:56:46.698Z
0,20.29,-29,-69,50.67,1011.09,18,3.559,1,1368,2015-10-26T19:54:49.780Z
0,20.21,-33,-72,50.76,1011.2,17,3.559,1,1366,2015-10-26T19:54:04.406Z
0,20.21,-25,-68,50.82,1011.13,17,3.559,1,1369,2015-10-26T19:53:05.157Z
0,20.26,-29,-68,50.67,1011.1,17,3.559,1,1366,2015-10-26T19:52:08.636Z
0,20.31,-37,-72,50.79,1011.11,18,3.559,1,1363,2015-10-26T19:51:07.744Z
0,20.21,-37,-74,50.24,1011.14,18,3.559,1,1368,2015-10-26T19:50:12.379Z
0,20.2,-31,-71,50.57,1011.16,18,3.559,1,1361,2015-10-26T19:49:24.052Z
0,20.07,-29,-72,50.83,1011.01,18,3.559,1,1368,2015-10-26T19:48:06.103Z
100,19.97,-26,-71,51.47,1011.18,18,3.559,1,1368,2015-10-26T19:47:18.710Z
100,19.79,-34,-73,52.48,1011.22,18,3.559,1,1367,2015-10-26T19:46:12.853Z
100,19.9,-23,-69,52.1,1011.26,17,3.559,1,1367,2015-10-26T19:45:02.445Z
0,20.11,-24,-68,51.4,1011.25,17,3.559,1,1372,2015-10-26T19:44:18.794Z
0,20.07,-29,-69,51.57,1011.33,18,3.559,1,1364,2015-10-26T19:43:09.111Z
0,20.2,-25,-69,50.96,1011.27,18,3.559,1,1368,2015-10-26T19:42:16.174Z
0,20.31,-33,-76,50.35,1011.28,17,3.559,1,1366,2015-10-26T19:41:28.322Z
0,20.21,-28,-71,50.67,1011.22,17,3.559,1,1363,2015-10-26T19:40:24.265Z
0,20.2,-16,-66,50.48,1011.25,20,3.559,1,1376,2015-10-26T19:39:21.218Z
100,20.19,-36,-74,50.59,1011.27,20,3.559,1,1367,2015-10-26T19:38:14.385Z
0,20.37,-17,-68,50.64,1011.18,21,3.559,1,1372,2015-10-26T19:37:39.577Z
0,20.29,-26,-69,50.21,1011.17,21,3.559,1,1366,2015-10-26T19:36:24.211Z
0,20.33,-25,-71,50.15,1011.2,21,3.559,1,1363,2015-10-26T19:35:41.627Z
0,20.39,-26,-72,50.29,1011.29,21,3.559,1,1374,2015-10-26T19:34:18.189Z
0,20.43,-29,-66,49.85,1011.22,21,3.559,1,1363,2015-10-26T19:33:25.071Z
0,20.37,-29,-68,50.61,1011.16,20,3.559,1,1372,2015-10-26T19:32:21.275Z
0,20.35,-26,-68,49.77,1011.22,20,3.559,1,1374,2015-10-26T19:31:33.139Z
0,20.28,-23,-68,50.53,1011.21,21,3.559,1,1368,2015-10-26T19:30:21.071Z
0,20.31,-26,-71,50.58,1011.13,21,3.559,1,1359,2015-10-26T19:29:30.858Z
0,20.21,-36,-72,50.67,1011.2,21,3.559,1,1367,2015-10-26T19:28:32.006Z
0,20.33,-29,-72,50.06,1011.21,20,3.559,1,1364,2015-10-26T19:27:42.308Z
0,20.42,-34,-71,49.82,1011.15,20,3.559,1,1363,2015-10-26T19:26:42.618Z
0,20.4,-25,-69,49.6,1011.16,21,3.559,1,1374,2015-10-26T19:25:41.099Z
0,20.4,-29,-68,49.85,1011.22,20,3.559,1,1368,2015-10-26T19:24:40.152Z
0,20.41,-32,-74,49.88,1011.13,20,3.559,1,1364,2015-10-26T19:23:42.045Z
0,20.26,-25,-66,49.54,1011.12,20,3.559,1,1372,2015-10-26T19:22:30.900Z
0,20.28,-28,-68,50.15,1011.2,20,3.559,1,1363,2015-10-26T19:21:46.919Z
0,20.28,-26,-72,49.6,1011.11,20,3.559,1,1363,2015-10-26T19:20:41.857Z
0,20.35,-31,-72,50.27,1011.14,21,3.559,1,1363,2015-10-26T19:19:35.670Z
0,20.32,-25,-72,50.29,1011.13,20,3.559,1,1372,2015-10-26T19:18:41.059Z
0,20.32,-25,-69,49.87,1011.08,21,3.559,1,1374,2015-10-26T19:17:50.126Z
0,20.39,-25,-72,50.15,1010.99,20,3.559,1,1368,2015-10-26T19:16:49.704Z
0,20.29,-25,-68,50.12,1011.11,17,3.559,1,1361,2015-10-26T19:15:49.915Z
0,20.21,-32,-73,49.6,1011.1,17,3.559,1,1367,2015-10-26T19:14:49.342Z
0,20.19,-29,-72,50.8,1011.21,17,3.559,1,1367,2015-10-26T19:13:47.966Z
0,20.19,-29,-68,50.25,1011.21,18,3.559,1,1360,2015-10-26T19:12:43.646Z
0,20.09,-21,-65,50.48,1011.21,18,3.559,1,1363,2015-10-26T19:11:54.870Z
0,20.06,-25,-66,51.11,1011.16,17,3.559,1,1372,2015-10-26T19:10:46.137Z
0,20.2,-25,-72,50.65,1011.12,18,3.559,1,1372,2015-10-26T19:10:02.128Z
0,20.21,-26,-71,50.64,1011.2,18,3.559,1,1366,2015-10-26T19:08:50.844Z
0,20.33,-23,-71,49.83,1011.19,20,3.559,1,1364,2015-10-26T19:07:58.771Z
0,20.22,-20,-65,49.74,1011.16,21,3.559,1,1363,2015-10-26T19:06:57.267Z
0,20.21,-20,-68,50.04,1011.26,20,3.559,1,1363,2015-10-26T19:06:09.695Z
0,20.21,-32,-68,50.24,1011.22,21,3.559,1,1368,2015-10-26T19:05:00.497Z
0,20.21,-20,-65,50.13,1011.26,20,3.559,1,1372,2015-10-26T19:04:06.064Z
0,20.11,-32,-72,50.31,1011.28,21,3.559,1,1360,2015-10-26T19:03:18.300Z
0,20.11,-16,-65,50.68,1011.25,20,3.559,1,1360,2015-10-26T19:02:04.122Z
0,20.14,-34,-72,50.25,1011.26,20,3.559,1,1367,2015-10-26T19:01:11.489Z
0,20.05,-20,-66,50.99,1011.3,21,3.559,1,1363,2015-10-26T19:00:03.862Z
0,20.1,-24,-68,50.65,1011.3,21,3.559,1,1376,2015-10-26T18:59:01.516Z
0,20.01,-20,-64,51.24,1011.29,21,3.559,1,1361,2015-10-26T18:58:17.678Z
100,19.98,-24,-68,51.26,1011.32,20,3.559,1,1369,2015-10-26T18:57:09.824Z
100,19.94,-34,-68,51.29,1011.34,21,3.559,1,1363,2015-10-26T18:56:09.864Z
100,19.81,-25,-68,51.39,1011.29,21,3.559,1,1368,2015-10-26T18:55:06.520Z
100,19.76,-29,-73,51.8,1011.32,21,3.559,1,1372,2015-10-26T18:54:10.115Z
100,19.76,-16,-68,51.8,1011.28,21,3.559,1,1364,2015-10-26T18:53:08.384Z
100,19.74,-25,-66,51.65,1011.38,21,3.559,1,1367,2015-10-26T18:52:11.711Z
100,19.67,-25,-66,52,1011.35,21,3.559,1,1368,2015-10-26T18:51:17.697Z
100,19.62,-20,-65,52.15,1011.35,21,3.559,1,1360,2015-10-26T18:50:13.866Z
100,19.67,-24,-72,52,1011.35,21,3.559,1,1367,2015-10-26T18:49:15.274Z
100,19.78,-20,-68,51.44,1011.37,20,3.559,1,1363,2015-10-26T18:48:19.186Z
100,19.61,-17,-68,52.09,1011.44,21,3.559,1,1360,2015-10-26T18:47:15.219Z
100,19.77,-17,-68,51.44,1011.38,20,3.559,1,1367,2015-10-26T18:46:16.308Z
100,19.93,-20,-65,51.18,1011.36,21,3.559,1,1363,2015-10-26T18:45:17.654Z
0,20.16,-20,-71,50.44,1011.29,21,3.559,1,1366,2015-10-26T18:44:25.711Z
0,20.11,-32,-72,50.57,1011.43,20,3.559,1,1361,2015-10-26T18:43:19.752Z
0,20.19,-20,-68,50.28,1011.34,21,3.559,1,1366,2015-10-26T18:42:33.746Z
0,20.2,-26,-76,50.16,1011.4,21,3.559,1,1360,2015-10-26T18:41:22.725Z
0,20.2,-24,-65,50.1,1011.38,21,3.559,1,1363,2015-10-26T18:40:24.737Z
0,20.21,-29,-69,49.94,1011.38,20,3.559,1,1363,2015-10-26T18:39:24.499Z
0,20.2,-17,-64,49.87,1011.34,21,3.559,1,1363,2015-10-26T18:37:26.814Z
0,20.21,-16,-72,49.9,1011.4,21,3.559,1,1367,2015-10-26T18:36:43.327Z
0,20.2,-16,-68,49.61,1011.32,20,3.559,1,1363,2015-10-26T18:35:30.189Z
100,20.17,-20,-68,50.16,1011.38,21,3.559,1,1361,2015-10-26T18:33:59.056Z
0,20.2,-23,-65,49.41,1011.4,21,3.559,1,1361,2015-10-26T18:34:31.760Z
0,20.01,-18,-64,50.14,1011.34,21,3.559,1,1363,2015-10-26T18:32:38.560Z
100,19.96,-18,-64,50.54,1011.36,20,3.559,1,1356,2015-10-26T18:31:35.434Z
0,20.01,-26,-68,50.22,1011.47,21,3.559,1,1363,2015-10-26T18:29:50.483Z
100,19.93,-18,-68,50.57,1011.4,20,3.559,1,1361,2015-10-26T18:30:40.104Z
0,20.01,-20,-66,50.37,1011.43,21,3.559,1,1366,2015-10-26T18:28:54.268Z
100,19.97,-25,-68,50.19,1011.38,20,3.559,1,1360,2015-10-26T18:27:40.217Z
100,19.81,-24,-68,50.73,1011.41,20,3.559,1,1368,2015-10-26T18:26:40.592Z
100,19.78,-32,-69,50.81,1011.45,21,3.559,1,1368,2015-10-26T18:25:52.834Z
100,19.57,-21,-68,51.42,1011.48,21,3.559,1,1368,2015-10-26T18:24:44.547Z
100,19.63,-25,-66,51.08,1011.43,21,3.559,1,1368,2015-10-26T18:23:45.278Z
100,19.74,-21,-68,50.81,1011.42,20,3.559,1,1356,2015-10-26T18:22:55.453Z
100,19.75,-20,-72,50.7,1011.49,18,3.559,1,1376,2015-10-26T18:21:52.927Z
100,19.8,-17,-69,50.58,1011.52,17,3.559,1,1366,2015-10-26T18:20:47.581Z
0,20.05,-18,-65,50.01,1011.51,18,3.559,1,1368,2015-10-26T18:19:58.230Z
100,20.02,-20,-68,50.06,1011.43,18,3.559,1,1363,2015-10-26T18:18:51.894Z
0,20.19,-24,-64,49.54,1011.45,18,3.559,1,1363,2015-10-26T18:18:11.873Z
0,20.11,-20,-65,49.68,1011.44,18,3.559,1,1363,2015-10-26T18:17:08.331Z
0,20.03,-20,-68,49.91,1011.43,18,3.559,1,1363,2015-10-26T18:16:11.025Z
100,19.88,-29,-66,50.25,1011.5,18,3.559,1,1366,2015-10-26T18:14:58.958Z
0,20.07,-20,-68,49.77,1011.44,17,3.559,1,1363,2015-10-26T18:13:57.804Z
0,20.09,-17,-68,49.61,1011.48,18,3.559,1,1359,2015-10-26T18:13:05.618Z
0,20.2,-25,-72,49.29,1011.5,17,3.559,1,1364,2015-10-26T18:11:16.402Z
0,20.09,-18,-66,49.54,1011.45,18,3.559,1,1364,2015-10-26T18:11:59.866Z
0,20.11,-18,-65,49.48,1011.49,18,3.559,1,1366,2015-10-26T18:10:04.095Z
0,20.2,-32,-68,49.35,1011.4,18,3.559,1,1368,2015-10-26T18:09:06.809Z
0,20.21,-32,-68,48.97,1011.51,18,3.559,1,1367,2015-10-26T18:08:08.368Z
0,20.2,-20,-72,49.12,1011.41,18,3.559,1,1366,2015-10-26T18:07:16.739Z
0,20.09,-25,-66,49.45,1011.5,18,3.559,1,1366,2015-10-26T18:05:23.786Z
0,20.19,-20,-65,49.25,1011.46,18,3.559,1,1359,2015-10-26T18:06:11.377Z
0,20.03,-25,-68,49.62,1011.5,18,3.559,1,1372,2015-10-26T18:04:33.343Z
100,19.9,-25,-72,49.92,1011.56,18,3.559,1,1372,2015-10-26T18:03:28.969Z
0,20.06,-29,-69,49.41,1011.46,18,3.559,1,1372,2015-10-26T18:01:31.426Z
100,19.99,-29,-64,49.53,1011.47,17,3.559,1,1363,2015-10-26T18:02:30.903Z
0,20.2,-18,-68,49.09,1011.51,18,3.559,1,1359,2015-10-26T18:00:33.103Z
0,20.21,-32,-68,48.84,1011.47,17,3.559,1,1360,2015-10-26T17:59:28.155Z
0,20.27,-24,-72,48.55,1011.56,18,3.559,1,1359,2015-10-26T17:57:36.078Z
0,20.26,-28,-68,48.58,1011.45,18,3.559,1,1363,2015-10-26T17:58:15.652Z
0,20.21,-25,-71,48.68,1011.55,18,3.559,1,1363,2015-10-26T17:56:22.461Z
100,20.2,-29,-69,48.82,1011.47,18,3.559,1,1360,2015-10-26T17:55:31.988Z
0,20.52,-18,-66,47.81,1011.43,18,3.559,1,1368,2015-10-26T17:53:34.042Z
0,20.47,-16,-66,48.01,1011.46,18,3.559,1,1360,2015-10-26T17:54:20.903Z
0,20.44,-29,-69,47.84,1011.36,18,3.559,1,1360,2015-10-26T17:52:50.732Z
0,20.39,-20,-68,48.16,1011.44,17,3.559,1,1366,2015-10-26T17:51:25.448Z
0,20.43,-16,-66,48.01,1011.37,18,3.559,1,1358,2015-10-26T17:50:26.814Z
0,20.35,-16,-65,47.89,1011.51,18,3.559,1,1364,2015-10-26T17:48:45.909Z
0,20.35,-18,-66,48.09,1011.42,17,3.559,1,1359,2015-10-26T17:49:28.190Z
0,20.35,-29,-72,48.02,1011.43,18,3.559,1,1361,2015-10-26T17:47:53.258Z
0,20.4,-20,-68,47.96,1011.49,18,3.559,1,1369,2015-10-26T17:46:52.064Z
0,20.26,-21,-72,48.22,1011.39,21,3.559,1,1376,2015-10-26T17:44:43.107Z
0,20.37,-31,-68,48.09,1011.39,21,3.559,1,1366,2015-10-26T17:45:36.843Z
0,20.2,-18,-65,48.43,1011.39,21,3.559,1,1366,2015-10-26T17:44:02.426Z
0,20.28,-23,-72,48.16,1011.41,21,3.559,1,1361,2015-10-26T17:42:35.776Z
0,20.33,-23,-68,48.02,1011.45,21,3.559,1,1363,2015-10-26T17:41:37.728Z
0,20.41,-26,-72,47.77,1011.43,21,3.559,1,1366,2015-10-26T17:40:08.125Z
0,20.41,-24,-72,47.68,1011.37,21,3.559,1,1368,2015-10-26T17:40:38.939Z
0,20.39,-25,-72,47.79,1011.34,20,3.559,1,1372,2015-10-26T17:38:55.454Z
100,20.5,-40,-71,47.48,1011.38,21,3.559,1,1366,2015-10-26T17:37:43.821Z
0,20.76,-32,-68,46.71,1011.39,21,3.559,1,1363,2015-10-26T17:36:56.883Z
0,20.81,-33,-69,46.38,1011.35,20,3.559,1,1375,2015-10-26T17:36:10.545Z
0,20.77,-24,-72,46.64,1011.37,21,3.559,1,1368,2015-10-26T17:33:59.893Z
0,20.71,-25,-68,46.65,1011.36,21,3.559,1,1368,2015-10-26T17:35:04.868Z
0,20.73,-21,-71,46.71,1011.41,21,3.559,1,1376,2015-10-26T17:32:49.168Z
0,20.71,-24,-72,46.61,1011.41,20,3.559,1,1363,2015-10-26T17:31:50.241Z
0,20.72,-36,-71,46.61,1011.34,21,3.559,1,1368,2015-10-26T17:30:52.015Z
0,20.83,-32,-72,46.35,1011.37,21,3.559,1,1367,2015-10-26T17:29:08.693Z
0,20.77,-31,-71,46.51,1011.37,22,3.559,1,1363,2015-10-26T17:29:52.945Z
0,20.84,-39,-72,46.28,1011.46,21,3.559,1,1366,2015-10-26T17:27:55.651Z
0,20.83,-32,-68,46.28,1011.34,20,3.559,1,1363,2015-10-26T17:27:05.148Z
0,20.82,-32,-69,46.18,1011.29,18,3.559,1,1361,2015-10-26T17:25:12.102Z
0,20.88,-25,-68,46.05,1011.37,18,3.559,1,1361,2015-10-26T17:26:00.695Z
100,20.67,-32,-71,46.61,1011.39,18,3.559,1,1363,2015-10-26T17:24:02.200Z
0,20.93,-29,-71,45.91,1011.44,18,3.559,1,1363,2015-10-26T17:23:02.476Z
0,20.95,-26,-69,45.87,1011.38,18,3.559,1,1372,2015-10-26T17:22:20.263Z
0,20.99,-29,-66,45.78,1011.34,21,3.559,1,1367,2015-10-26T17:20:39.212Z
0,20.97,-29,-72,45.75,1011.35,21,3.559,1,1368,2015-10-26T17:21:05.353Z
100,21.07,-32,-68,45.51,1011.36,20,3.559,1,1366,2015-10-26T17:19:20.742Z
0,21.15,-32,-72,45.21,1011.36,21,3.559,1,1368,2015-10-26T17:17:27.055Z
100,20.9,-32,-68,45.85,1011.44,21,3.559,1,1363,2015-10-26T17:18:19.515Z
0,21.14,-32,-71,45.21,1011.4,21,3.559,1,1363,2015-10-26T17:16:30.925Z
0,21.13,-25,-71,45.21,1011.35,21,3.559,1,1368,2015-10-26T17:15:19.967Z
0,21.26,-31,-72,44.93,1011.34,21,3.559,1,1366,2015-10-26T17:14:15.511Z
0,21.3,-29,-68,44.83,1011.35,21,3.559,1,1366,2015-10-26T17:12:32.932Z
0,21.27,-26,-72,44.73,1011.31,21,3.559,1,1364,2015-10-26T17:13:16.764Z
0,21.35,-32,-68,44.67,1011.31,21,3.559,1,1363,2015-10-26T17:10:50.581Z
0,21.27,-31,-72,44.87,1011.31,21,3.559,1,1368,2015-10-26T17:11:22.850Z
0,21.38,-32,-72,44.47,1011.34,21,3.559,1,1364,2015-10-26T17:09:31.192Z
0,21.35,-34,-68,44.7,1011.35,21,3.559,1,1363,2015-10-26T17:08:38.109Z
0,21.35,-25,-71,44.6,1011.28,22,3.559,1,1359,2015-10-26T17:07:26.566Z
0,21.36,-29,-72,44.57,1011.3,21,3.559,1,1360,2015-10-26T17:06:35.596Z
0,21.38,-33,-68,44.47,1011.27,21,3.559,1,1363,2015-10-26T17:04:49.431Z
0,21.34,-32,-68,44.67,1011.34,22,3.559,1,1360,2015-10-26T17:05:35.032Z
0,21.37,-31,-71,44.67,1011.22,22,3.559,1,1368,2015-10-26T17:03:36.953Z
0,21.49,-32,-69,44.3,1011.21,22,3.559,1,1366,2015-10-26T17:02:44.883Z
0,21.55,-25,-65,44.04,1011.29,20,3.559,1,1363,2015-10-26T17:01:02.900Z
0,21.49,-25,-68,44.36,1011.24,22,3.559,1,1366,2015-10-26T17:01:43.779Z
0,21.58,-32,-68,44.07,1011.3,20,3.559,1,1368,2015-10-26T16:59:45.674Z
0,21.49,-26,-72,44.49,1011.29,20,3.559,1,1363,2015-10-26T16:58:40.639Z
0,21.46,-29,-69,44.43,1011.29,20,3.559,1,1368,2015-10-26T16:57:45.001Z
0,21.52,-33,-68,44.17,1011.29,21,3.559,1,1367,2015-10-26T16:56:47.477Z
0,21.57,-29,-68,44.1,1011.25,22,3.559,1,1368,2015-10-26T16:55:10.604Z
0,21.46,-26,-71,44.36,1011.36,21,3.559,1,1366,2015-10-26T16:55:44.892Z
0,21.57,-34,-69,44.17,1011.34,23,3.559,1,1363,2015-10-26T16:53:59.654Z
0,21.53,-32,-71,44.27,1011.37,22,3.564,1,1359,2015-10-26T16:52:49.190Z
0,21.61,-31,-72,43.89,1011.34,23,3.559,1,1368,2015-10-26T16:51:14.186Z
0,21.56,-25,-66,44.04,1011.3,23,3.559,1,1360,2015-10-26T16:52:02.880Z
0,21.62,-32,-72,43.56,1011.23,26,3.559,1,1363,2015-10-26T16:49:15.568Z
0,21.64,-32,-68,43.82,1011.28,26,3.564,1,1363,2015-10-26T16:49:53.613Z
0,21.61,-29,-72,43.82,1011.26,27,3.559,1,1367,2015-10-26T16:48:29.983Z
0,21.68,-32,-72,43.69,1011.32,28,3.559,1,1368,2015-10-26T16:47:09.179Z
0,21.74,-16,-68,43.17,1011.23,29,3.559,1,1369,2015-10-26T16:44:35.916Z
0,21.66,-29,-72,43.59,1011.27,28,3.559,1,1368,2015-10-26T16:46:00.622Z
0,21.7,-29,-66,43.53,1011.3,28,3.559,1,1367,2015-10-26T16:45:00.798Z
0,21.66,-31,-71,43.76,1011.25,29,3.559,1,1361,2015-10-26T16:43:25.145Z
0,21.7,-25,-68,43.49,1011.33,30,3.559,1,1363,2015-10-26T16:42:26.147Z
0,21.67,-26,-69,43.56,1011.32,31,3.559,1,1367,2015-10-26T16:40:25.895Z
0,21.64,-25,-68,43.72,1011.25,30,3.559,1,1366,2015-10-26T16:41:21.850Z
0,21.67,-32,-72,43.59,1011.26,31,3.559,1,1367,2015-10-26T16:38:26.786Z
0,21.62,-25,-71,43.69,1011.36,32,3.559,1,1363,2015-10-26T16:37:27.137Z
0,21.69,-32,-71,43.56,1011.26,30,3.559,1,1360,2015-10-26T16:39:12.543Z
0,21.61,-32,-71,43.69,1011.23,32,3.559,1,1363,2015-10-26T16:36:36.911Z
0,21.56,-28,-66,43.74,1011.22,33,3.559,1,1369,2015-10-26T16:35:38.501Z
0,21.7,-32,-68,43.3,1011.17,34,3.559,1,1361,2015-10-26T16:34:17.531Z
0,21.81,-28,-68,43.09,1011.16,34,3.559,1,1364,2015-10-26T16:32:39.478Z
0,21.79,-25,-68,43.39,1011.17,34,3.559,1,1364,2015-10-26T16:33:20.948Z
0,21.88,-20,-71,42.76,1011.18,35,3.559,1,1369,2015-10-26T16:31:22.798Z
0,21.84,-25,-68,43.06,1011.21,36,3.559,1,1364,2015-10-26T16:30:26.743Z
0,21.75,-26,-68,43.3,1011.29,36,3.559,1,1363,2015-10-26T16:28:46.017Z
0,21.74,-29,-68,43.07,1011.23,35,3.559,1,1363,2015-10-26T16:29:26.271Z
0,21.81,-32,-71,43.12,1011.2,36,3.559,1,1368,2015-10-26T16:27:45.104Z
0,21.8,-32,-69,43.16,1011.12,37,3.559,1,1366,2015-10-26T16:26:32.379Z
0,21.81,-26,-71,42.99,1011.23,38,3.559,1,1368,2015-10-26T16:25:49.138Z
0,21.83,-25,-71,42.69,1011.26,39,3.559,1,1368,2015-10-26T16:23:51.152Z
0,21.84,-33,-68,42.86,1011.39,38,3.559,1,1364,2015-10-26T16:24:36.787Z
0,21.86,-28,-66,42.53,1011.27,41,3.559,1,1368,2015-10-26T16:21:59.978Z
0,21.85,-24,-68,42.46,1011.27,39,3.559,1,1363,2015-10-26T16:22:38.100Z
0,21.95,-25,-72,42.39,1011.24,41,3.559,1,1359,2015-10-26T16:21:10.292Z
0,21.95,-25,-71,42.45,1011.29,41,3.559,1,1363,2015-10-26T16:19:53.820Z
0,21.95,-29,-72,42.39,1011.21,42,3.559,1,1367,2015-10-26T16:19:05.973Z
0,21.95,-26,-71,42.49,1011.32,44,3.564,1,1369,2015-10-26T16:17:59.087Z
0,21.97,-24,-68,42.55,1011.27,44,3.559,1,1367,2015-10-26T16:17:04.023Z
0,22.02,-25,-65,42.32,1011.34,46,3.559,1,1372,2015-10-26T16:15:48.963Z
0,22.02,-26,-69,42.19,1011.35,47,3.559,1,1363,2015-10-26T16:14:49.839Z
0,22.03,-29,-71,42.29,1011.36,49,3.559,1,1359,2015-10-26T16:14:04.316Z
0,22.03,-26,-72,42.25,1011.38,52,3.559,1,1363,2015-10-26T16:13:21.472Z
0,22.03,-29,-72,42.22,1011.3,52,3.559,1,1366,2015-10-26T16:12:09.754Z
0,22.03,-29,-72,42.15,1011.37,53,3.559,1,1374,2015-10-26T16:10:57.024Z
0,22.04,-26,-71,42.32,1011.36,54,3.559,1,1368,2015-10-26T16:10:14.076Z
0,22.03,-25,-72,42.19,1011.49,57,3.559,1,1367,2015-10-26T16:09:26.136Z
0,22.05,-26,-71,41.99,1011.46,61,3.559,1,1367,2015-10-26T16:08:02.630Z
0,22.05,-25,-72,42.12,1011.47,66,3.559,1,1367,2015-10-26T16:07:12.690Z
0,22.03,-25,-71,42.29,1011.42,72,3.559,1,1367,2015-10-26T16:06:28.252Z
0,22.02,-26,-68,42.42,1011.48,78,3.559,1,1366,2015-10-26T16:05:18.129Z
0,22.01,-31,-71,42.29,1011.57,81,3.559,1,1369,2015-10-26T16:04:24.782Z
0,22.03,-25,-72,42.12,1011.5,83,3.559,1,1363,2015-10-26T16:03:13.947Z
0,21.93,-29,-72,42.33,1011.52,83,3.559,1,1360,2015-10-26T16:02:10.966Z
0,21.88,-26,-69,42.86,1011.6,102,3.559,1,1363,2015-10-26T16:01:13.685Z
0,21.88,-40,-77,42.93,1011.5,100,3.559,1,1363,2015-10-26T16:00:15.442Z
0,21.89,-28,-73,42.86,1011.59,101,3.559,1,1366,2015-10-26T15:59:16.464Z
0,21.88,-25,-68,42.76,1011.56,104,3.559,1,1363,2015-10-26T15:58:17.757Z
0,21.86,-28,-69,42.86,1011.51,95,3.559,1,1368,2015-10-26T15:57:19.502Z
0,21.85,-29,-64,42.86,1011.51,100,3.559,1,1366,2015-10-26T15:56:34.886Z
0,21.86,-26,-72,42.82,1011.57,101,3.559,1,1368,2015-10-26T15:55:22.784Z
0,21.88,-29,-73,42.76,1011.58,99,3.559,1,1372,2015-10-26T15:54:25.123Z
0,21.86,-28,-69,42.82,1011.6,97,3.559,1,1364,2015-10-26T15:53:26.347Z
0,21.82,-31,-69,42.96,1011.55,92,3.559,1,1368,2015-10-26T15:52:27.801Z
0,21.84,-29,-72,42.93,1011.55,86,3.559,1,1376,2015-10-26T15:51:30.529Z
0,21.87,-32,-71,42.86,1011.54,81,3.564,1,1364,2015-10-26T15:50:31.644Z
0,21.88,-26,-72,42.82,1011.54,77,3.559,1,1368,2015-10-26T15:49:35.537Z
0,21.94,-26,-72,42.75,1011.52,74,3.559,1,1361,2015-10-26T15:48:34.560Z
0,21.93,-32,-72,42.79,1011.53,71,3.559,1,1363,2015-10-26T15:47:37.853Z
0,21.94,-29,-73,42.82,1011.58,69,3.559,1,1372,2015-10-26T15:46:38.766Z
0,21.94,-28,-71,42.88,1011.55,69,3.559,1,1368,2015-10-26T15:45:40.931Z
0,21.9,-26,-74,42.96,1011.62,70,3.559,1,1369,2015-10-26T15:44:50.842Z
0,21.9,-25,-69,42.96,1011.68,71,3.559,1,1366,2015-10-26T15:43:50.635Z
0,21.91,-29,-71,42.96,1011.62,72,3.559,1,1369,2015-10-26T15:42:44.738Z
0,21.94,-33,-71,42.95,1011.63,75,3.559,1,1372,2015-10-26T15:41:46.845Z
0,21.94,-31,-68,42.96,1011.66,78,3.559,1,1366,2015-10-26T15:40:48.166Z
0,21.96,-25,-71,42.88,1011.62,81,3.559,1,1363,2015-10-26T15:40:08.550Z
0,21.98,-29,-77,42.91,1011.62,83,3.559,1,1369,2015-10-26T15:38:51.618Z
0,22.01,-25,-77,42.82,1011.58,87,3.559,1,1366,2015-10-26T15:37:53.318Z
0,21.96,-25,-71,42.98,1011.56,92,3.559,1,1364,2015-10-26T15:36:55.401Z
0,21.98,-29,-72,42.95,1011.54,98,3.559,1,1368,2015-10-26T15:35:56.758Z
0,21.98,-29,-72,42.91,1011.62,103,3.559,1,1364,2015-10-26T15:35:03.215Z
0,21.98,-29,-71,42.91,1011.53,109,3.559,1,1368,2015-10-26T15:34:05.496Z
0,21.99,-29,-74,42.91,1011.6,114,3.564,1,1368,2015-10-26T15:33:01.861Z
0,21.99,-28,-68,42.91,1011.59,121,3.559,1,1367,2015-10-26T15:32:06.353Z
0,22,-29,-68,42.91,1011.61,122,3.559,1,1363,2015-10-26T15:31:05.543Z
0,21.98,-25,-73,42.98,1011.66,120,3.559,1,1367,2015-10-26T15:30:07.994Z
0,21.99,-26,-72,42.95,1011.59,120,3.559,1,1368,2015-10-26T15:29:08.673Z
0,22.02,-28,-72,42.91,1011.64,122,3.559,1,1368,2015-10-26T15:28:11.185Z
0,22.03,-26,-65,42.88,1011.73,127,3.559,1,1367,2015-10-26T15:27:12.405Z
0,22.02,-31,-72,42.98,1011.68,135,3.559,1,1368,2015-10-26T15:26:14.163Z
0,22.03,-31,-73,43.01,1011.62,143,3.559,1,1371,2015-10-26T15:25:16.180Z
0,22.03,-31,-72,43.01,1011.65,147,3.559,1,1368,2015-10-26T15:24:17.338Z
0,22.03,-29,-73,43.01,1011.7,148,3.559,1,1369,2015-10-26T15:23:18.888Z
0,22.03,-25,-71,43.04,1011.63,148,3.559,1,1372,2015-10-26T15:22:21.624Z
0,22.03,-26,-72,43.11,1011.64,147,3.559,1,1371,2015-10-26T15:21:22.396Z
0,22.03,-29,-66,43.17,1011.62,146,3.559,1,1368,2015-10-26T15:20:24.140Z
0,22.03,-26,-68,43.21,1011.66,146,3.559,1,1361,2015-10-26T15:19:25.889Z
0,22.04,-26,-71,43.21,1011.65,146,3.559,1,1368,2015-10-26T15:18:27.814Z
0,22.03,-26,-71,43.31,1011.68,143,3.559,1,1368,2015-10-26T15:17:29.314Z
0,22.03,-31,-73,43.34,1011.69,137,3.559,1,1368,2015-10-26T15:16:31.300Z
0,22.03,-31,-74,43.34,1011.65,127,3.559,1,1372,2015-10-26T15:15:33.037Z
0,22.03,-25,-74,43.41,1011.65,116,3.564,1,1368,2015-10-26T15:14:34.657Z
0,22.03,-26,-73,43.37,1011.64,109,3.559,1,1367,2015-10-26T15:13:36.250Z
0,22.04,-29,-72,43.31,1011.63,103,3.559,1,1372,2015-10-26T15:12:37.959Z
0,22.04,-26,-68,43.24,1011.61,120,3.559,1,1359,2015-10-26T15:11:39.810Z
0,22.05,-28,-71,43.17,1011.62,119,3.559,1,1366,2015-10-26T15:10:41.508Z
0,22.03,-26,-71,43.24,1011.67,112,3.564,1,1368,2015-10-26T15:09:43.214Z
0,22.03,-25,-72,43.27,1011.59,107,3.559,1,1371,2015-10-26T15:08:45.376Z
0,22.05,-26,-68,43.27,1011.57,109,3.559,1,1364,2015-10-26T15:07:46.943Z
0,22.03,-31,-71,43.34,1011.69,111,3.559,1,1368,2015-10-26T15:06:48.546Z
0,22.03,-32,-72,43.37,1011.67,114,3.559,1,1368,2015-10-26T15:05:50.123Z
0,22.05,-29,-71,43.41,1011.69,113,3.564,1,1368,2015-10-26T15:04:51.897Z
0,22.05,-29,-72,43.48,1011.64,106,3.559,1,1368,2015-10-26T15:03:54.854Z
0,22.08,-25,-69,43.51,1011.65,100,3.559,1,1361,2015-10-26T15:02:57.233Z
0,22.08,-25,-73,43.57,1011.69,100,3.559,1,1371,2015-10-26T15:01:57.453Z
0,22.09,-31,-72,43.57,1011.74,102,3.564,1,1372,2015-10-26T15:00:58.890Z
0,22.09,-32,-73,43.61,1011.7,108,3.564,1,1372,2015-10-26T15:00:01.207Z
0,22.08,-29,-68,43.71,1011.69,128,3.559,1,1363,2015-10-26T14:59:02.912Z
0,22.06,-29,-72,43.64,1011.65,128,3.559,1,1372,2015-10-26T14:58:04.641Z
0,22.05,-29,-72,43.64,1011.66,128,3.559,1,1368,2015-10-26T14:57:05.862Z
0,22.04,-29,-66,43.64,1011.71,127,3.559,1,1363,2015-10-26T14:56:08.208Z
0,22.05,-26,-72,43.48,1011.72,126,3.559,1,1366,2015-10-26T14:55:09.781Z
0,22.03,-26,-71,43.44,1011.76,125,3.559,1,1368,2015-10-26T14:54:11.870Z
0,22.04,-29,-65,43.27,1011.71,123,3.559,1,1364,2015-10-26T14:53:21.372Z
0,22.03,-29,-69,43.21,1011.79,122,3.559,1,1366,2015-10-26T14:52:26.473Z
0,22.05,-28,-72,43.11,1011.78,121,3.559,1,1368,2015-10-26T14:51:31.125Z
0,22.03,-32,-72,43.08,1011.73,121,3.559,1,1372,2015-10-26T14:50:19.600Z
0,22.03,-25,-68,42.98,1011.74,119,3.564,1,1366,2015-10-26T14:49:30.063Z
0,22.03,-25,-72,42.88,1011.9,115,3.559,1,1368,2015-10-26T14:48:32.484Z
0,22.03,-29,-69,42.78,1011.74,118,3.559,1,1363,2015-10-26T14:47:35.452Z
0,22.03,-29,-72,42.75,1011.81,120,3.564,1,1372,2015-10-26T14:46:33.181Z
0,22.03,-26,-72,42.65,1011.88,117,3.559,1,1368,2015-10-26T14:45:31.458Z
0,22,-29,-72,42.65,1011.82,115,3.559,1,1366,2015-10-26T14:44:29.960Z
0,22,-29,-68,42.59,1011.85,114,3.559,1,1368,2015-10-26T14:43:37.281Z
0,21.98,-29,-68,42.55,1011.86,114,3.559,1,1366,2015-10-26T14:42:34.642Z
0,22,-29,-72,42.39,1011.86,113,3.559,1,1368,2015-10-26T14:41:34.118Z
0,21.98,-25,-72,42.32,1011.89,113,3.564,1,1368,2015-10-26T14:40:37.553Z
0,21.98,-26,-71,42.25,1011.88,112,3.559,1,1372,2015-10-26T14:39:41.804Z
0,21.98,-31,-68,42.15,1011.79,112,3.559,1,1364,2015-10-26T14:38:40.350Z
0,21.97,-29,-72,42.19,1011.74,112,3.559,1,1369,2015-10-26T14:37:49.221Z
0,21.97,-29,-68,42.15,1011.76,111,3.559,1,1364,2015-10-26T14:36:43.564Z
0,21.96,-29,-68,42.15,1011.87,111,3.559,1,1368,2015-10-26T14:35:44.844Z
0,21.94,-28,-68,42.12,1011.9,112,3.564,1,1363,2015-10-26T14:34:51.504Z
0,21.94,-26,-72,42.09,1011.93,112,3.559,1,1359,2015-10-26T14:33:47.627Z
0,21.93,-25,-72,42.04,1011.87,112,3.559,1,1364,2015-10-26T14:32:50.614Z
0,21.93,-25,-72,41.97,1011.96,111,3.559,1,1368,2015-10-26T14:31:51.053Z
0,21.91,-25,-68,41.97,1011.97,112,3.559,1,1364,2015-10-26T14:30:52.774Z
0,21.93,-29,-66,41.9,1011.94,112,3.559,1,1360,2015-10-26T14:30:00.848Z
0,21.93,-25,-68,41.87,1011.91,110,3.559,1,1366,2015-10-26T14:29:01.216Z
0,21.91,-29,-71,41.87,1011.88,111,3.559,1,1363,2015-10-26T14:28:04.002Z
0,21.88,-36,-64,41.87,1011.88,111,3.559,1,1360,2015-10-26T14:26:59.850Z
0,21.9,-25,-71,41.84,1011.86,110,3.559,1,1366,2015-10-26T14:26:07.635Z
0,21.88,-29,-71,41.8,1011.94,111,3.559,1,1366,2015-10-26T14:25:03.198Z
0,21.88,-25,-72,41.8,1011.96,111,3.559,1,1360,2015-10-26T14:24:04.781Z
0,21.88,-25,-68,41.77,1011.98,111,3.559,1,1368,2015-10-26T14:23:07.078Z
0,21.88,-29,-69,41.74,1011.99,111,3.559,1,1364,2015-10-26T14:22:08.523Z
0,21.87,-26,-68,41.74,1011.99,111,3.559,1,1368,2015-10-26T14:21:10.350Z
0,21.85,-29,-66,41.74,1012.05,110,3.559,1,1366,2015-10-26T14:20:11.842Z
0,21.84,-25,-71,41.7,1012.01,110,3.559,1,1367,2015-10-26T14:19:13.465Z
0,21.82,-28,-68,41.77,1011.95,110,3.559,1,1368,2015-10-26T14:18:15.333Z
0,21.81,-28,-72,41.84,1012.03,111,3.559,1,1371,2015-10-26T14:17:17.214Z
0,21.82,-25,-73,41.84,1012.04,117,3.559,1,1363,2015-10-26T14:16:18.541Z
0,21.83,-25,-68,41.87,1012.05,113,3.559,1,1366,2015-10-26T14:15:20.830Z
0,21.84,-31,-72,41.9,1012.12,113,3.559,1,1368,2015-10-26T14:14:21.852Z
0,21.84,-31,-64,42,1012.02,111,3.559,1,1363,2015-10-26T14:13:23.588Z
0,21.85,-29,-72,42.04,1011.99,97,3.559,1,1363,2015-10-26T14:12:25.431Z
0,21.85,-29,-72,42,1012.15,95,3.559,1,1367,2015-10-26T14:11:26.696Z
0,21.86,-33,-71,42,1012.07,96,3.559,1,1366,2015-10-26T14:10:29.293Z
0,21.88,-25,-69,42,1012.15,94,3.559,1,1366,2015-10-26T14:09:31.872Z
0,21.91,-32,-65,41.9,1012.1,109,3.559,1,1368,2015-10-26T14:08:32.077Z
0,21.9,-32,-71,42,1012.15,110,3.559,1,1366,2015-10-26T14:07:36.433Z
0,21.9,-32,-72,42,1012.05,110,3.559,1,1363,2015-10-26T14:06:35.176Z
0,21.91,-29,-68,42,1012.15,111,3.559,1,1363,2015-10-26T14:05:36.915Z
0,21.86,-25,-66,42.2,1012.14,112,3.559,1,1363,2015-10-26T14:04:38.594Z
0,21.88,-29,-68,42.2,1012.2,113,3.559,1,1368,2015-10-26T14:03:40.329Z
0,21.89,-31,-68,42.17,1012.16,113,3.559,1,1366,2015-10-26T14:02:42.006Z
0,21.9,-31,-72,42.17,1012.2,112,3.559,1,1369,2015-10-26T14:01:43.807Z
0,21.9,-29,-72,42.23,1012.21,112,3.559,1,1368,2015-10-26T14:00:46.735Z
0,21.91,-25,-72,42.27,1012.16,111,3.559,1,1367,2015-10-26T13:59:47.155Z
0,21.9,-26,-72,42.33,1012.24,112,3.559,1,1366,2015-10-26T13:58:49.036Z
0,21.93,-32,-69,42.35,1012.07,111,3.559,1,1369,2015-10-26T13:57:50.552Z
0,21.93,-32,-73,42.43,1012.24,111,3.559,1,1367,2015-10-26T13:56:52.533Z
0,21.94,-31,-66,42.55,1012.22,112,3.559,1,1367,2015-10-26T13:55:53.973Z
0,21.95,-32,-68,42.62,1012.24,111,3.559,1,1366,2015-10-26T13:54:56.293Z
0,21.95,-25,-72,42.72,1012.21,109,3.559,1,1366,2015-10-26T13:54:02.552Z
0,21.98,-32,-68,42.78,1012.25,110,3.559,1,1367,2015-10-26T13:52:59.189Z
0,21.98,-29,-68,42.95,1012.21,114,3.559,1,1372,2015-10-26T13:52:01.233Z
0,21.97,-29,-72,43.08,1012.18,114,3.564,1,1366,2015-10-26T13:51:02.638Z
0,21.99,-25,-71,43.17,1012.17,118,3.559,1,1368,2015-10-26T13:50:04.832Z
0,21.98,-33,-71,43.51,1012.2,115,3.564,1,1361,2015-10-26T13:49:05.994Z
0,22,-36,-68,43.61,1012.17,113,3.559,1,1363,2015-10-26T13:48:07.777Z
0,22,-31,-72,43.77,1012.1,113,3.559,1,1369,2015-10-26T13:47:09.366Z
0,22.01,-33,-69,44.14,1012.09,112,3.564,1,1360,2015-10-26T13:46:12.322Z
0,22.03,-26,-69,44.01,1012.11,111,3.559,1,1360,2015-10-26T13:45:15.907Z
0,22.03,-24,-72,44.33,1012.14,112,3.559,1,1367,2015-10-26T13:44:14.996Z
0,22.05,-29,-72,44.53,1012.07,110,3.559,1,1363,2015-10-26T13:43:16.345Z
0,22.1,-32,-72,44.75,1012.08,110,3.559,1,1368,2015-10-26T13:42:18.225Z
0,22.14,-26,-66,44.52,1012.11,109,3.559,1,1363,2015-10-26T13:41:20.029Z
0,22.09,-29,-69,44.89,1012.13,108,3.564,1,1368,2015-10-26T13:40:21.909Z
0,22.08,-29,-72,44.96,1012.19,108,3.559,1,1363,2015-10-26T13:39:24.449Z
0,22.09,-29,-68,45.02,1012.23,110,3.559,1,1363,2015-10-26T13:38:28.333Z
0,22.09,-32,-72,45.03,1012.27,109,3.559,1,1359,2015-10-26T13:37:26.767Z
0,22.11,-24,-72,45.15,1012.22,106,3.559,1,1361,2015-10-26T13:36:28.513Z
0,22.12,-25,-72,45.15,1012.21,106,3.559,1,1363,2015-10-26T13:35:30.831Z
0,22.13,-32,-72,45.18,1012.22,111,3.559,1,1360,2015-10-26T13:34:33.062Z
0,22.15,-29,-68,45.25,1012.25,110,3.564,1,1366,2015-10-26T13:33:33.769Z
0,22.17,-29,-72,45.35,1012.17,114,3.559,1,1368,2015-10-26T13:32:35.759Z
0,22.17,-28,-68,45.42,1012.22,108,3.564,1,1368,2015-10-26T13:31:37.303Z
0,22.18,-29,-71,45.62,1012.25,108,3.559,1,1367,2015-10-26T13:30:41.421Z
0,22.18,-28,-71,45.65,1012.29,114,3.559,1,1359,2015-10-26T13:29:40.845Z
0,22.18,-24,-72,45.58,1012.36,116,3.559,1,1361,2015-10-26T13:28:42.638Z
0,22.2,-25,-68,45.52,1012.34,119,3.559,1,1360,2015-10-26T13:27:44.727Z
0,22.2,-25,-72,45.48,1012.3,118,3.564,1,1368,2015-10-26T13:26:46.182Z
0,22.2,-26,-72,45.45,1012.17,117,3.564,1,1366,2015-10-26T13:25:48.346Z
0,22.23,-33,-72,45.48,1012.28,117,3.559,1,1363,2015-10-26T13:24:49.982Z
0,22.23,-36,-72,45.45,1012.29,116,3.559,1,1363,2015-10-26T13:23:52.018Z
0,22.21,-31,-71,45.55,1012.21,118,3.559,1,1366,2015-10-26T13:23:02.369Z
0,22.2,-25,-66,45.58,1012.19,117,3.564,1,1360,2015-10-26T13:21:56.534Z
0,22.19,-25,-72,45.52,1012.2,116,3.559,1,1372,2015-10-26T13:20:56.869Z
0,22.17,-31,-72,45.55,1012.2,118,3.559,1,1359,2015-10-26T13:20:04.472Z
0,22.19,-32,-68,45.55,1012.27,118,3.559,1,1366,2015-10-26T13:19:00.609Z
0,22.18,-34,-72,45.62,1012.29,120,3.559,1,1366,2015-10-26T13:18:02.309Z
0,22.2,-34,-69,45.48,1012.33,119,3.559,1,1363,2015-10-26T13:17:04.100Z
0,22.25,-32,-65,45.42,1012.32,120,3.559,1,1361,2015-10-26T13:16:05.875Z
0,22.24,-33,-69,45.42,1012.46,120,3.559,1,1371,2015-10-26T13:15:09.735Z
0,22.26,-26,-72,45.22,1012.36,119,3.559,1,1368,2015-10-26T13:14:14.411Z
0,22.25,-32,-68,45.32,1012.43,120,3.564,1,1366,2015-10-26T13:13:11.494Z
0,22.26,-25,-72,45.28,1012.48,118,3.559,1,1368,2015-10-26T13:12:12.716Z
0,22.3,-32,-68,45.21,1012.44,118,3.564,1,1363,2015-10-26T13:11:14.592Z
0,22.32,-33,-72,45.21,1012.43,120,3.559,1,1360,2015-10-26T13:10:16.400Z
0,22.33,-36,-68,45.11,1012.45,122,3.559,1,1366,2015-10-26T13:09:18.480Z
0,22.38,-29,-73,45.01,1012.47,123,3.559,1,1368,2015-10-26T13:08:19.876Z
0,22.43,-33,-72,44.97,1012.43,123,3.559,1,1360,2015-10-26T13:07:21.617Z
0,22.48,-32,-74,44.87,1012.58,125,3.559,1,1368,2015-10-26T13:06:28.345Z
0,22.58,-32,-72,44.54,1012.59,125,3.559,1,1368,2015-10-26T13:05:26.889Z
0,22.7,-25,-72,44.3,1012.55,125,3.559,1,1361,2015-10-26T13:04:26.888Z
100,22.79,-25,-68,43.92,1012.59,125,3.559,1,1368,2015-10-26T13:03:29.747Z
0,22.95,-29,-73,43.42,1012.56,126,3.559,1,1366,2015-10-26T13:02:35.450Z
0,23.02,-29,-68,42.62,1012.45,126,3.559,1,1366,2015-10-26T13:01:33.321Z
0,22.99,-26,-71,42.82,1012.41,125,3.559,1,1368,2015-10-26T13:00:34.633Z
0,22.95,-29,-72,43.15,1012.54,126,3.559,1,1372,2015-10-26T12:59:35.733Z
0,22.95,-29,-74,43.02,1012.53,128,3.559,1,1361,2015-10-26T12:58:37.891Z
0,23,-31,-77,43.08,1012.46,129,3.564,1,1372,2015-10-26T12:57:39.378Z
0,22.95,-32,-66,43.25,1012.47,132,3.559,1,1368,2015-10-26T12:56:41.603Z
0,22.95,-26,-71,43.05,1012.6,153,3.559,1,1367,2015-10-26T12:55:47.832Z
0,22.92,-29,-76,43,1012.54,141,3.559,1,1368,2015-10-26T12:54:44.620Z
0,22.94,-25,-72,43.23,1012.64,140,3.559,1,1363,2015-10-26T12:53:46.385Z
0,22.95,-31,-73,43.42,1012.54,137,3.559,1,1366,2015-10-26T12:52:49.005Z
0,22.95,-25,-72,43.32,1012.56,139,3.559,1,1363,2015-10-26T12:51:49.941Z
0,22.95,-32,-72,43.25,1012.58,139,3.559,1,1368,2015-10-26T12:50:52.153Z
0,22.94,-29,-68,42.69,1012.73,141,3.559,1,1366,2015-10-26T12:49:53.469Z
0,22.95,-26,-73,43.15,1012.74,142,3.559,1,1363,2015-10-26T12:49:00.301Z
0,22.98,-32,-72,42.91,1012.69,158,3.559,1,1372,2015-10-26T12:47:56.987Z
0,22.98,-31,-68,42.66,1012.67,194,3.559,1,1367,2015-10-26T12:46:59.466Z
0,22.95,-25,-69,42.85,1012.77,147,3.559,1,1363,2015-10-26T12:46:05.706Z
0,22.95,-32,-73,42.88,1012.69,158,3.564,1,1372,2015-10-26T12:45:02.916Z
0,22.95,-32,-73,42.72,1012.8,162,3.564,1,1372,2015-10-26T12:44:04.395Z
0,22.92,-31,-73,42.83,1012.94,157,3.559,1,1371,2015-10-26T12:43:05.807Z
0,22.95,-28,-68,42.98,1012.85,201,3.559,1,1368,2015-10-26T12:42:07.672Z
0,22.93,-26,-71,42.96,1012.89,168,3.564,1,1368,2015-10-26T12:41:10.369Z
0,22.9,-25,-72,42.86,1012.89,148,3.564,1,1359,2015-10-26T12:40:10.982Z
0,22.9,-26,-72,42.76,1012.94,149,3.564,1,1367,2015-10-26T12:39:13.193Z
0,22.87,-32,-74,43,1012.88,148,3.559,1,1369,2015-10-26T12:38:14.591Z
0,22.85,-31,-76,42.83,1012.98,149,3.559,1,1368,2015-10-26T12:37:17.161Z
0,22.8,-29,-72,43.13,1012.82,148,3.559,1,1368,2015-10-26T12:36:18.042Z
0,22.8,-32,-72,42.89,1012.87,149,3.559,1,1369,2015-10-26T12:35:23.054Z
0,22.76,-26,-68,43.11,1012.87,152,3.559,1,1366,2015-10-26T12:34:26.996Z
0,22.71,-29,-77,43.04,1012.83,158,3.559,1,1371,2015-10-26T12:33:26.329Z
0,22.6,-32,-77,43.11,1012.96,161,3.559,1,1368,2015-10-26T12:32:25.255Z
0,22.49,-31,-77,43.85,1012.93,172,3.559,1,1366,2015-10-26T12:31:26.947Z
0,22.36,-32,-72,43.69,1013.07,180,3.559,1,1366,2015-10-26T12:30:29.107Z
0,22.3,-26,-68,44.12,1013.01,212,3.564,1,1363,2015-10-26T12:29:35.185Z
0,22.21,-26,-72,44.88,1013.05,205,3.559,1,1364,2015-10-26T12:28:32.633Z
0,22.24,-28,-68,44.75,1012.97,195,3.559,1,1364,2015-10-26T12:27:34.099Z
0,22.24,-31,-71,44.62,1012.96,155,3.564,1,1368,2015-10-26T12:26:35.922Z
0,22.26,-26,-68,44.46,1012.82,164,3.564,1,1368,2015-10-26T12:25:44.002Z
0,22.29,-32,-72,44.45,1012.99,162,3.559,1,1371,2015-10-26T12:24:39.542Z
0,22.33,-28,-69,44.28,1012.9,163,3.559,1,1363,2015-10-26T12:23:41.431Z
0,22.27,-29,-72,44.45,1012.8,161,3.559,1,1372,2015-10-26T12:22:43.032Z
0,22.28,-32,-73,44.41,1012.9,160,3.559,1,1374,2015-10-26T12:21:45.084Z
0,22.26,-26,-69,44.3,1012.83,124,3.559,1,1368,2015-10-26T12:20:46.954Z
0,22.3,-32,-68,44.15,1012.89,116,3.564,1,1364,2015-10-26T12:19:48.621Z
0,22.32,-31,-77,43.98,1012.89,122,3.559,1,1368,2015-10-26T12:18:50.627Z
0,22.26,-29,-71,43.92,1012.91,127,3.559,1,1368,2015-10-26T12:17:52.228Z
0,22.25,-28,-68,43.8,1012.89,157,3.559,1,1364,2015-10-26T12:16:53.676Z
0,22.24,-28,-73,43.8,1012.97,190,3.559,1,1366,2015-10-26T12:15:55.539Z
0,22.24,-29,-72,43.76,1013.01,120,3.559,1,1368,2015-10-26T12:14:57.203Z
0,22.23,-32,-74,43.59,1013.03,109,3.559,1,1372,2015-10-26T12:13:59.002Z
0,22.27,-29,-73,43.49,1013.1,103,3.559,1,1371,2015-10-26T12:13:00.767Z
0,22.34,-29,-72,43.29,1013.12,110,3.559,1,1368,2015-10-26T12:12:02.529Z
0,22.42,-29,-68,43.09,1013.07,123,3.559,1,1360,2015-10-26T12:11:04.303Z
0,22.55,-31,-72,42.88,1013.15,158,3.559,1,1360,2015-10-26T12:10:06.082Z
100,22.69,-36,-77,42.47,1013.06,249,3.559,1,1355,2015-10-26T12:09:07.831Z
0,22.86,-52,-79,42.1,1012.93,447,3.564,1,1343,2015-10-26T12:08:09.639Z
0,22.95,-48,-80,41.89,1012.9,483,3.564,1,1350,2015-10-26T12:07:12.106Z
0,22.97,-55,-77,41.76,1012.87,445,3.559,1,1340,2015-10-26T12:06:13.921Z
0,23.06,-56,-77,41.5,1012.84,455,3.564,1,1350,2015-10-26T12:05:15.693Z
0,23.1,-57,-79,40.83,1012.6,469,3.559,1,1347,2015-10-26T12:04:17.140Z
0,23.08,-48,-79,41,1012.74,446,3.559,1,1344,2015-10-26T12:03:19.981Z
0,23.01,-47,-84,41.37,1012.82,475,3.564,1,1344,2015-10-26T12:02:21.184Z
0,23.01,-53,-80,41.13,1012.85,500,3.564,1,1344,2015-10-26T12:01:22.969Z
0,22.95,-52,-77,41.53,1012.83,461,3.559,1,1343,2015-10-26T12:00:24.841Z
0,22.82,-32,-80,41.84,1012.96,442,3.559,1,1350,2015-10-26T11:59:27.413Z
0,22.74,-36,-79,41.85,1013.06,416,3.559,1,1351,2015-10-26T11:58:31.435Z
0,22.69,-32,-68,41.98,1013.02,381,3.559,1,1360,2015-10-26T11:57:29.902Z
0,22.56,-25,-69,42.19,1013.11,270,3.564,1,1363,2015-10-26T11:56:31.982Z
0,22.5,-26,-68,42.29,1013.19,177,3.559,1,1368,2015-10-26T11:55:33.362Z
0,22.45,-23,-71,42.32,1013.32,192,3.559,1,1366,2015-10-26T11:54:35.333Z
0,22.47,-26,-68,42.36,1013.23,208,3.559,1,1359,2015-10-26T11:53:36.916Z
0,22.42,-31,-74,42.3,1013.29,227,3.559,1,1358,2015-10-26T11:52:38.649Z
0,22.36,-25,-74,42.27,1013.3,212,3.559,1,1363,2015-10-26T11:51:40.416Z
0,22.29,-32,-69,42.73,1013.36,196,3.559,1,1368,2015-10-26T11:50:42.202Z
0,22.25,-29,-68,42.87,1013.38,199,3.559,1,1368,2015-10-26T11:49:50.553Z
0,22.24,-29,-72,42.61,1013.43,250,3.559,1,1366,2015-10-26T11:48:47.903Z
0,22.2,-25,-73,42.51,1013.42,182,3.559,1,1367,2015-10-26T11:47:49.705Z
0,22.21,-26,-71,42.54,1013.41,175,3.559,1,1368,2015-10-26T11:46:51.250Z
0,22.2,-25,-74,42.51,1013.4,122,3.559,1,1369,2015-10-26T11:45:51.499Z
0,22.23,-32,-69,42.57,1013.41,174,3.559,1,1367,2015-10-26T11:44:56.091Z
0,22.18,-31,-72,42.61,1013.36,175,3.559,1,1366,2015-10-26T11:43:54.108Z
0,22.18,-25,-68,42.91,1013.46,176,3.559,1,1366,2015-10-26T11:42:55.376Z
0,22.16,-26,-69,42.61,1013.42,171,3.559,1,1363,2015-10-26T11:41:57.062Z
0,22.11,-26,-72,43.04,1013.48,177,3.559,1,1368,2015-10-26T11:40:59.416Z
0,22.1,-25,-69,43.01,1013.31,175,3.559,1,1367,2015-10-26T11:40:05.500Z
0,22.1,-26,-71,42.71,1013.41,174,3.559,1,1367,2015-10-26T11:39:08.964Z
0,22.04,-29,-74,43.08,1013.37,182,3.559,1,1363,2015-10-26T11:38:03.346Z
0,21.93,-26,-68,43.36,1013.47,198,3.559,1,1368,2015-10-26T11:37:05.378Z
100,21.83,-26,-71,43.56,1013.39,191,3.559,1,1367,2015-10-26T11:36:06.590Z
0,21.67,-26,-65,43.82,1013.46,190,3.559,1,1366,2015-10-26T11:35:08.488Z
0,21.54,-25,-66,44.17,1013.43,180,3.564,1,1366,2015-10-26T11:34:09.852Z
0,21.42,-25,-66,44.96,1013.48,196,3.559,1,1368,2015-10-26T11:33:12.251Z
0,21.4,-26,-71,45,1013.52,195,3.559,1,1367,2015-10-26T11:32:17.610Z
0,21.39,-25,-68,44.9,1013.58,172,3.559,1,1363,2015-10-26T11:31:16.009Z
0,21.39,-29,-66,44.97,1013.56,179,3.564,1,1371,2015-10-26T11:30:20.625Z
0,21.37,-24,-71,44.97,1013.5,202,3.559,1,1366,2015-10-26T11:29:18.619Z
0,21.34,-26,-68,45.07,1013.6,183,3.559,1,1368,2015-10-26T11:28:19.740Z
0,21.3,-25,-69,44.97,1013.5,176,3.559,1,1368,2015-10-26T11:27:21.423Z
0,21.3,-25,-72,44.97,1013.66,183,3.564,1,1368,2015-10-26T11:26:23.929Z
0,21.29,-29,-69,45.03,1013.72,169,3.559,1,1364,2015-10-26T11:25:25.395Z
0,21.23,-25,-68,45.14,1013.7,171,3.559,1,1366,2015-10-26T11:24:26.343Z
0,21.22,-25,-68,45.11,1013.66,170,3.559,1,1368,2015-10-26T11:23:28.847Z
0,21.23,-29,-68,45.11,1013.62,168,3.564,1,1363,2015-10-26T11:22:31.012Z
0,21.27,-25,-66,45.07,1013.69,161,3.559,1,1366,2015-10-26T11:21:36.518Z
0,21.26,-25,-72,45.03,1013.65,162,3.559,1,1368,2015-10-26T11:20:33.626Z
0,21.29,-32,-68,44.93,1013.72,162,3.559,1,1368,2015-10-26T11:19:34.887Z
0,21.3,-29,-72,44.93,1013.67,147,3.559,1,1360,2015-10-26T11:18:38.947Z
0,21.3,-32,-68,45.13,1013.66,160,3.559,1,1366,2015-10-26T11:17:38.682Z
0,21.3,-25,-72,45.17,1013.79,163,3.559,1,1366,2015-10-26T11:16:40.413Z
0,21.27,-32,-71,45.26,1013.77,163,3.559,1,1366,2015-10-26T11:15:45.369Z
0,21.23,-26,-68,44.97,1013.85,154,3.559,1,1367,2015-10-26T11:14:43.381Z
0,21.24,-26,-64,45.17,1013.81,158,3.559,1,1368,2015-10-26T11:13:44.858Z
0,21.24,-28,-66,45.27,1013.73,158,3.559,1,1367,2015-10-26T11:12:45.721Z
0,21.22,-29,-72,45.27,1013.8,156,3.559,1,1368,2015-10-26T11:11:48.605Z
0,21.19,-24,-72,45.37,1013.75,158,3.559,1,1360,2015-10-26T11:10:48.965Z
0,21.15,-29,-71,45.3,1013.74,159,3.559,1,1363,2015-10-26T11:09:50.618Z
0,21.12,-31,-71,45.3,1013.75,157,3.559,1,1368,2015-10-26T11:08:52.880Z
0,21.12,-33,-71,45.34,1013.76,156,3.559,1,1363,2015-10-26T11:07:54.006Z
0,21.11,-29,-71,45.34,1013.82,155,3.559,1,1363,2015-10-26T11:06:55.427Z
0,21.08,-26,-71,45.4,1013.87,156,3.559,1,1366,2015-10-26T11:05:57.093Z
0,21.06,-31,-72,45.38,1013.88,157,3.559,1,1367,2015-10-26T11:05:00.670Z
0,21.06,-25,-68,45.35,1013.94,156,3.559,1,1364,2015-10-26T11:04:00.294Z
0,21.07,-25,-68,45.28,1013.88,156,3.559,1,1361,2015-10-26T11:03:02.830Z
0,21.08,-25,-65,45.34,1013.94,156,3.559,1,1368,2015-10-26T11:02:03.439Z
0,21.14,-25,-69,45.21,1013.9,159,3.559,1,1366,2015-10-26T11:01:06.264Z
0,21.07,-25,-69,45.35,1013.96,155,3.559,1,1366,2015-10-26T11:00:07.218Z
0,21.07,-25,-66,45.28,1013.93,97,3.559,1,1372,2015-10-26T10:59:13.644Z
0,21.07,-26,-68,45.32,1013.94,157,3.559,1,1366,2015-10-26T10:58:09.838Z
0,21.11,-24,-71,45.3,1013.88,160,3.564,1,1364,2015-10-26T10:57:12.466Z
0,21.11,-29,-71,45.47,1013.85,152,3.559,1,1366,2015-10-26T10:56:12.974Z
0,21.09,-32,-71,45.57,1013.88,155,3.559,1,1368,2015-10-26T10:55:15.684Z
0,21.07,-25,-66,45.45,1013.9,150,3.559,1,1374,2015-10-26T10:54:16.659Z
0,21.05,-26,-65,45.48,1013.91,154,3.559,1,1368,2015-10-26T10:53:18.976Z
0,21.02,-25,-66,45.55,1013.98,110,3.564,1,1369,2015-10-26T10:52:19.293Z
0,21.01,-25,-69,45.48,1014.01,152,3.559,1,1366,2015-10-26T10:51:22.442Z
0,21.01,-32,-77,45.55,1014.09,115,3.559,1,1366,2015-10-26T10:50:29.858Z
0,21.01,-25,-68,45.45,1014.12,101,3.559,1,1363,2015-10-26T10:49:23.984Z
0,21.03,-24,-72,45.41,1014.16,112,3.559,1,1371,2015-10-26T10:48:31.783Z
0,20.99,-25,-65,45.32,1014.1,120,3.559,1,1368,2015-10-26T10:47:27.127Z
0,21.01,-25,-68,45.28,1014.2,154,3.559,1,1364,2015-10-26T10:46:45.794Z
0,20.95,-26,-71,45.41,1014.31,131,3.559,1,1367,2015-10-26T10:45:41.058Z
0,21.01,-26,-65,45.25,1014.25,125,3.559,1,1366,2015-10-26T10:44:41.383Z
0,21.03,-25,-68,45.12,1014.19,145,3.559,1,1363,2015-10-26T10:43:33.377Z
0,21.08,-26,-68,45.01,1014.3,155,3.559,1,1366,2015-10-26T10:42:35.248Z
0,21.14,-25,-71,44.81,1014.26,178,3.559,1,1363,2015-10-26T10:41:37.058Z
0,21.21,-29,-68,44.62,1014.3,162,3.559,1,1367,2015-10-26T10:40:38.173Z
0,21.27,-25,-66,44.34,1014.25,155,3.559,1,1364,2015-10-26T10:39:39.623Z
0,21.36,-26,-68,44.14,1014.24,152,3.559,1,1364,2015-10-26T10:38:43.485Z
0,21.49,-26,-72,43.3,1014.25,149,3.559,1,1363,2015-10-26T10:37:44.955Z
0,21.47,-26,-66,43.34,1014.13,147,3.559,1,1363,2015-10-26T10:36:44.208Z
0,21.53,-26,-66,43.07,1014.12,146,3.559,1,1366,2015-10-26T10:35:45.953Z
0,21.54,-25,-68,43.24,1014.06,146,3.559,1,1372,2015-10-26T10:34:47.277Z
0,21.53,-28,-72,43.17,1014.11,145,3.559,1,1363,2015-10-26T10:33:48.755Z
0,21.51,-25,-68,43.44,1014.18,144,3.559,1,1366,2015-10-26T10:32:50.654Z
0,21.54,-25,-69,43.44,1014.12,144,3.559,1,1368,2015-10-26T10:31:51.774Z
0,21.49,-23,-68,43.37,1014.02,142,3.559,1,1363,2015-10-26T10:30:53.669Z
0,21.47,-26,-72,43.07,1013.93,141,3.559,1,1363,2015-10-26T10:29:54.969Z
0,21.44,-26,-69,43.3,1013.94,140,3.559,1,1367,2015-10-26T10:28:56.409Z
0,21.44,-25,-68,43.14,1013.98,140,3.559,1,1366,2015-10-26T10:27:57.750Z
0,21.43,-25,-72,43.24,1013.92,139,3.559,1,1368,2015-10-26T10:26:59.769Z
0,21.43,-29,-69,43.27,1013.94,139,3.559,1,1363,2015-10-26T10:26:00.939Z
0,21.44,-24,-69,43.2,1013.93,137,3.559,1,1371,2015-10-26T10:25:02.522Z
0,21.4,-25,-72,43.38,1013.98,137,3.559,1,1363,2015-10-26T10:24:03.943Z
0,21.32,-25,-68,43.45,1013.97,135,3.559,1,1363,2015-10-26T10:23:05.823Z
0,21.3,-25,-68,43.15,1014,119,3.559,1,1367,2015-10-26T10:22:07.279Z
0,21.25,-25,-72,43.28,1013.98,134,3.564,1,1372,2015-10-26T10:21:09.114Z
0,21.22,-26,-69,43.13,1014.01,134,3.559,1,1368,2015-10-26T10:20:10.016Z
0,21.24,-24,-72,43.35,1013.93,132,3.559,1,1366,2015-10-26T10:19:11.305Z
0,21.24,-26,-72,43.15,1014.08,133,3.559,1,1368,2015-10-26T10:18:12.523Z
0,21.17,-25,-66,43.3,1014.02,132,3.559,1,1363,2015-10-26T10:17:14.525Z
0,21.17,-25,-72,43.4,1014.05,132,3.559,1,1366,2015-10-26T10:16:19.138Z
0,21.21,-26,-64,43.17,1013.93,132,3.564,1,1363,2015-10-26T10:15:21.250Z
0,21.24,-25,-64,43.07,1013.97,131,3.559,1,1366,2015-10-26T10:14:18.750Z
0,21.25,-25,-69,43.35,1014.04,117,3.559,1,1366,2015-10-26T10:13:19.828Z
0,21.25,-26,-64,43.52,1014.08,133,3.559,1,1363,2015-10-26T10:12:21.545Z
0,21.21,-26,-64,43.49,1014.09,133,3.559,1,1363,2015-10-26T10:11:23.467Z
0,21.21,-25,-68,43.49,1014.07,131,3.559,1,1367,2015-10-26T10:10:24.499Z
0,21.22,-29,-66,43.17,1014.03,130,3.559,1,1366,2015-10-26T10:09:26.225Z
0,21.2,-24,-72,43.49,1014.17,128,3.559,1,1368,2015-10-26T10:08:27.102Z
0,21.17,-26,-65,43,1014.07,116,3.559,1,1364,2015-10-26T10:07:28.998Z
0,21.15,-25,-72,42.67,1014.03,126,3.559,1,1366,2015-10-26T10:06:30.011Z
0,21.13,-25,-68,42.9,1014,127,3.559,1,1368,2015-10-26T10:05:32.810Z
0,21.1,-25,-71,43.07,1014.07,125,3.559,1,1368,2015-10-26T10:04:32.892Z
0,21.11,-25,-68,42.97,1014.03,125,3.559,1,1367,2015-10-26T10:03:34.339Z
0,21.07,-26,-64,42.91,1014.04,123,3.559,1,1368,2015-10-26T10:02:36.232Z
0,21.08,-25,-69,42.77,1014.08,119,3.559,1,1371,2015-10-26T10:01:38.557Z
0,21.09,-26,-68,42.9,1013.95,123,3.559,1,1366,2015-10-26T10:00:38.961Z
0,21.03,-25,-65,42.91,1013.98,122,3.559,1,1372,2015-10-26T09:59:40.202Z
0,21.03,-25,-68,42.88,1013.97,121,3.559,1,1359,2015-10-26T09:58:41.641Z
0,21.02,-25,-71,42.88,1013.91,119,3.559,1,1368,2015-10-26T09:57:42.869Z
0,21.03,-25,-68,42.85,1013.87,120,3.559,1,1368,2015-10-26T09:56:44.900Z
0,21.05,-29,-65,42.95,1013.92,120,3.559,1,1363,2015-10-26T09:55:45.693Z
0,21.02,-25,-69,42.81,1013.97,120,3.559,1,1366,2015-10-26T09:54:47.817Z
0,21.03,-25,-72,42.75,1014.05,119,3.559,1,1363,2015-10-26T09:53:48.942Z
0,21.03,-28,-64,42.91,1014.07,119,3.559,1,1366,2015-10-26T09:52:49.988Z
0,21.02,-28,-68,42.81,1014.07,117,3.559,1,1360,2015-10-26T09:51:51.453Z
0,21.05,-23,-66,42.95,1014.07,118,3.559,1,1359,2015-10-26T09:50:52.831Z
0,21.03,-25,-68,42.81,1014,117,3.559,1,1361,2015-10-26T09:49:54.457Z
0,21.02,-25,-66,42.75,1013.94,116,3.559,1,1363,2015-10-26T09:48:55.664Z
0,21.06,-25,-68,42.78,1013.92,115,3.559,1,1368,2015-10-26T09:47:57.212Z
0,21.03,-28,-69,42.88,1013.94,116,3.559,1,1367,2015-10-26T09:46:58.514Z
0,20.99,-25,-71,42.88,1013.95,116,3.559,1,1368,2015-10-26T09:45:59.906Z
0,20.97,-26,-68,43.07,1013.9,116,3.559,1,1359,2015-10-26T09:45:02.128Z
0,20.94,-25,-68,43.17,1014,116,3.559,1,1366,2015-10-26T09:44:02.846Z
0,20.94,-25,-68,43.14,1014.03,115,3.559,1,1368,2015-10-26T09:43:04.644Z
0,20.91,-29,-68,43.24,1013.98,114,3.559,1,1366,2015-10-26T09:42:05.612Z
0,20.82,-25,-71,43.54,1013.99,116,3.559,1,1364,2015-10-26T09:41:07.032Z
0,20.78,-25,-71,43.54,1014.01,116,3.559,1,1368,2015-10-26T09:40:09.153Z
0,20.69,-25,-66,43.56,1013.97,115,3.559,1,1363,2015-10-26T09:39:10.163Z
0,20.66,-25,-66,43.59,1013.94,115,3.559,1,1367,2015-10-26T09:38:11.446Z
0,20.61,-28,-68,43.46,1013.98,115,3.559,1,1366,2015-10-26T09:37:12.602Z
0,20.64,-25,-68,43.46,1013.96,115,3.559,1,1368,2015-10-26T09:36:14.337Z
0,20.65,-26,-66,43.65,1013.83,115,3.559,1,1360,2015-10-26T09:35:15.980Z
0,20.63,-36,-72,43.65,1013.88,114,3.559,1,1376,2015-10-26T09:34:17.146Z
0,20.66,-29,-68,43.78,1013.83,115,3.559,1,1364,2015-10-26T09:33:18.117Z
0,20.68,-25,-69,43.56,1013.94,115,3.559,1,1367,2015-10-26T09:32:19.492Z
0,20.72,-24,-72,43.36,1013.79,115,3.559,1,1368,2015-10-26T09:31:21.510Z
0,20.75,-29,-66,43.51,1013.91,116,3.559,1,1372,2015-10-26T09:30:23.077Z
0,20.69,-26,-68,43.59,1013.95,116,3.559,1,1368,2015-10-26T09:29:23.763Z
0,20.72,-26,-68,43.46,1013.87,115,3.559,1,1368,2015-10-26T09:28:24.982Z
0,20.75,-25,-65,43.54,1013.89,116,3.559,1,1366,2015-10-26T09:27:31.343Z
0,20.7,-25,-68,43.69,1013.98,115,3.559,1,1366,2015-10-26T09:26:27.692Z
0,20.75,-26,-68,43.61,1014.04,116,3.559,1,1363,2015-10-26T09:25:29.792Z
0,20.67,-23,-71,43.65,1014.07,116,3.559,1,1372,2015-10-26T09:24:30.444Z
0,20.66,-34,-72,43.75,1014.05,115,3.559,1,1368,2015-10-26T09:23:31.799Z
0,20.63,-29,-68,43.81,1014.09,116,3.559,1,1368,2015-10-26T09:22:34.994Z
0,20.61,-32,-74,44.01,1014.1,117,3.559,1,1376,2015-10-26T09:21:35.547Z
0,20.6,-26,-64,43.85,1014.15,117,3.559,1,1366,2015-10-26T09:20:35.968Z
0,20.53,-26,-64,44.03,1014.11,117,3.559,1,1367,2015-10-26T09:19:37.863Z
0,20.49,-25,-69,44.19,1014.24,117,3.559,1,1369,2015-10-26T09:18:39.267Z
0,20.46,-25,-71,44.06,1014.19,117,3.559,1,1368,2015-10-26T09:17:40.701Z
0,20.46,-32,-72,43.99,1014.25,117,3.559,1,1368,2015-10-26T09:16:42.320Z
0,20.4,-26,-69,44.14,1014.26,117,3.559,1,1366,2015-10-26T09:15:44.819Z
0,20.38,-29,-68,44.17,1014.27,117,3.559,1,1368,2015-10-26T09:14:44.239Z
0,20.38,-25,-72,44.04,1014.32,116,3.559,1,1363,2015-10-26T09:13:45.459Z
0,20.4,-34,-72,44.19,1014.35,117,3.559,1,1363,2015-10-26T09:12:46.423Z
0,20.37,-29,-66,44.17,1014.43,116,3.559,1,1368,2015-10-26T09:11:47.721Z
0,20.34,-25,-66,44.2,1014.36,117,3.559,1,1366,2015-10-26T09:10:49.041Z
0,20.33,-34,-74,44.3,1014.39,118,3.559,1,1369,2015-10-26T09:09:51.246Z
0,20.38,-25,-72,44.43,1014.44,117,3.559,1,1366,2015-10-26T09:08:53.179Z
0,20.34,-34,-74,44.5,1014.46,118,3.559,1,1372,2015-10-26T09:07:53.911Z
0,20.32,-39,-72,44.5,1014.53,118,3.559,1,1368,2015-10-26T09:07:00.494Z
0,20.29,-25,-65,44.47,1014.37,118,3.559,1,1367,2015-10-26T09:06:02.211Z
0,20.29,-32,-72,44.57,1014.5,118,3.559,1,1374,2015-10-26T09:05:09.546Z
0,20.27,-25,-69,44.53,1014.53,118,3.559,1,1368,2015-10-26T09:03:58.217Z
0,20.27,-32,-73,44.53,1014.53,121,3.559,1,1369,2015-10-26T09:02:59.537Z
0,20.27,-32,-73,44.17,1014.61,120,3.559,1,1368,2015-10-26T09:02:01.756Z
0,20.29,-34,-74,44.04,1014.6,119,3.559,1,1368,2015-10-26T09:01:02.154Z
0,20.32,-34,-72,43.71,1014.52,118,3.559,1,1376,2015-10-26T09:00:03.549Z
0,20.28,-36,-72,43.94,1014.5,117,3.559,1,1372,2015-10-26T08:59:05.220Z
0,20.21,-34,-72,43.71,1014.53,116,3.559,1,1369,2015-10-26T08:58:06.594Z
0,20.21,-33,-72,43.81,1014.54,117,3.559,1,1372,2015-10-26T08:57:08.030Z
0,20.14,-25,-69,43.86,1014.53,117,3.559,1,1363,2015-10-26T08:56:08.624Z
0,20.09,-33,-72,43.59,1014.51,116,3.559,1,1371,2015-10-26T08:55:11.005Z
0,20.12,-36,-72,43.49,1014.53,115,3.559,1,1372,2015-10-26T08:54:11.572Z
0,20.09,-29,-68,43.66,1014.48,114,3.559,1,1364,2015-10-26T08:53:12.445Z
0,20.09,-32,-74,43.46,1014.56,113,3.559,1,1372,2015-10-26T08:52:14.814Z
0,20.09,-32,-72,43.4,1014.58,112,3.559,1,1369,2015-10-26T08:51:14.969Z
0,20.08,-32,-73,43.36,1014.6,112,3.559,1,1367,2015-10-26T08:50:16.227Z
0,20.12,-32,-73,43.4,1014.5,113,3.559,1,1368,2015-10-26T08:49:17.495Z
0,20.13,-25,-71,43.3,1014.5,114,3.559,1,1369,2015-10-26T08:48:18.744Z
0,20.2,-25,-66,43.11,1014.5,113,3.559,1,1366,2015-10-26T08:47:20.010Z
0,20.21,-24,-69,42.99,1014.48,114,3.559,1,1368,2015-10-26T08:46:21.675Z
0,20.21,-33,-72,43.05,1014.55,114,3.559,1,1368,2015-10-26T08:45:23.156Z
0,20.2,-28,-68,43.04,1014.45,113,3.559,1,1366,2015-10-26T08:44:23.986Z
0,20.11,-26,-66,43.17,1014.55,113,3.559,1,1367,2015-10-26T08:43:25.072Z
0,20.12,-24,-68,43.36,1014.57,112,3.559,1,1369,2015-10-26T08:42:26.534Z
0,20.1,-25,-68,43.33,1014.57,113,3.559,1,1372,2015-10-26T08:41:27.586Z
0,20.05,-33,-71,43.4,1014.58,113,3.559,1,1368,2015-10-26T08:40:28.793Z
0,20.02,-23,-65,43.35,1014.51,112,3.559,1,1363,2015-10-26T08:39:30.013Z
0,20.04,-32,-72,43.46,1014.52,110,3.559,1,1368,2015-10-26T08:38:31.500Z
100,19.99,-36,-71,43.51,1014.48,108,3.559,1,1369,2015-10-26T08:37:32.741Z
100,19.93,-25,-64,43.61,1014.6,93,3.559,1,1361,2015-10-26T08:36:33.820Z
100,19.92,-36,-73,43.64,1014.5,92,3.559,1,1372,2015-10-26T08:35:35.730Z
100,19.93,-25,-69,43.44,1014.56,92,3.559,1,1366,2015-10-26T08:34:36.163Z
100,19.93,-33,-73,43.64,1014.6,91,3.559,1,1376,2015-10-26T08:33:37.478Z
100,19.91,-25,-68,43.51,1014.61,91,3.559,1,1368,2015-10-26T08:32:38.938Z
100,19.92,-32,-72,43.64,1014.57,90,3.559,1,1368,2015-10-26T08:31:39.978Z
100,19.9,-33,-72,43.68,1014.61,90,3.559,1,1363,2015-10-26T08:30:41.028Z
100,19.9,-25,-65,43.58,1014.67,89,3.559,1,1367,2015-10-26T08:29:42.429Z
100,19.88,-32,-72,43.74,1014.71,88,3.559,1,1368,2015-10-26T08:28:43.436Z
100,19.87,-29,-66,43.68,1014.72,87,3.559,1,1367,2015-10-26T08:27:49.762Z
100,19.89,-23,-68,43.64,1014.72,86,3.559,1,1366,2015-10-26T08:26:45.890Z
100,19.88,-25,-68,43.64,1014.71,84,3.559,1,1360,2015-10-26T08:25:47.062Z
100,19.92,-28,-66,43.64,1014.67,84,3.559,1,1368,2015-10-26T08:24:48.298Z
100,19.97,-34,-72,43.58,1014.76,83,3.559,1,1372,2015-10-26T08:23:49.725Z
100,19.91,-29,-66,43.71,1014.68,82,3.559,1,1372,2015-10-26T08:22:50.851Z
100,19.94,-29,-68,43.61,1014.75,81,3.559,1,1363,2015-10-26T08:21:52.233Z
100,19.95,-34,-71,43.78,1014.77,97,3.559,1,1374,2015-10-26T08:20:53.476Z
100,19.91,-25,-68,43.87,1014.75,95,3.559,1,1368,2015-10-26T08:19:54.462Z
100,19.89,-32,-72,43.84,1014.75,95,3.559,1,1366,2015-10-26T08:18:56.109Z
100,19.86,-32,-71,43.92,1014.87,95,3.559,1,1364,2015-10-26T08:17:56.895Z
100,19.86,-26,-68,43.92,1014.81,94,3.559,1,1366,2015-10-26T08:16:58.121Z
100,19.81,-36,-73,43.95,1014.77,93,3.559,1,1372,2015-10-26T08:16:00.641Z
100,19.77,-32,-71,44.05,1014.85,93,3.559,1,1367,2015-10-26T08:15:00.919Z
100,19.72,-25,-66,44.12,1014.85,91,3.559,1,1368,2015-10-26T08:14:01.788Z
100,19.67,-29,-65,44.27,1014.86,93,3.559,1,1364,2015-10-26T08:13:03.569Z
100,19.64,-36,-72,44.3,1014.93,94,3.559,1,1366,2015-10-26T08:12:04.374Z
100,19.7,-36,-68,44.02,1014.91,90,3.559,1,1372,2015-10-26T08:11:05.645Z
100,19.64,-25,-71,44.14,1014.93,92,3.559,1,1367,2015-10-26T08:10:07.083Z
100,19.64,-25,-65,44,1014.85,91,3.559,1,1363,2015-10-26T08:09:11.021Z
100,19.65,-29,-66,44.04,1014.79,91,3.559,1,1368,2015-10-26T08:08:11.284Z
100,19.63,-23,-69,44.07,1014.8,89,3.559,1,1368,2015-10-26T08:07:10.924Z
100,19.62,-20,-68,43.97,1014.76,89,3.559,1,1363,2015-10-26T08:06:18.280Z
100,19.67,-29,-72,44,1014.83,88,3.559,1,1368,2015-10-26T08:05:12.600Z
100,19.68,-25,-66,43.87,1014.77,87,3.559,1,1372,2015-10-26T08:04:13.569Z
100,19.72,-33,-73,43.88,1014.79,86,3.559,1,1368,2015-10-26T08:03:14.814Z
100,19.69,-32,-72,43.92,1014.75,84,3.559,1,1363,2015-10-26T08:02:15.956Z
100,19.65,-26,-64,44.04,1014.81,85,3.559,1,1366,2015-10-26T08:01:17.253Z
100,19.63,-34,-77,44.17,1014.75,85,3.559,1,1366,2015-10-26T08:00:19.655Z
100,19.62,-33,-72,44.17,1014.81,88,3.559,1,1368,2015-10-26T07:59:19.514Z
100,19.62,-33,-77,44.17,1014.73,87,3.559,1,1368,2015-10-26T07:58:20.937Z
100,19.59,-25,-65,44.27,1014.73,88,3.559,1,1371,2015-10-26T07:57:22.273Z
100,19.57,-29,-64,44.3,1014.7,81,3.559,1,1363,2015-10-26T07:56:23.050Z
100,19.55,-25,-64,44.39,1014.71,81,3.559,1,1368,2015-10-26T07:55:24.224Z
100,19.57,-25,-68,44.56,1014.73,79,3.559,1,1368,2015-10-26T07:54:25.399Z
100,19.52,-36,-69,44.62,1014.75,78,3.559,1,1372,2015-10-26T07:53:26.976Z
100,19.5,-33,-72,44.8,1014.77,72,3.559,1,1368,2015-10-26T07:52:28.053Z
100,19.5,-33,-72,44.74,1014.81,76,3.559,1,1368,2015-10-26T07:51:29.242Z
100,19.47,-34,-68,44.8,1014.73,68,3.559,1,1368,2015-10-26T07:50:30.007Z
100,19.48,-25,-71,44.7,1014.69,75,3.559,1,1367,2015-10-26T07:49:31.131Z
100,19.55,-25,-69,44.89,1014.68,70,3.559,1,1368,2015-10-26T07:48:32.253Z
100,19.47,-26,-65,44.9,1014.69,72,3.559,1,1368,2015-10-26T07:47:34.930Z
100,19.48,-32,-72,45.17,1014.65,83,3.559,1,1368,2015-10-26T07:46:34.723Z
100,19.44,-33,-72,45.07,1014.65,70,3.559,1,1366,2015-10-26T07:45:36.515Z
